trials_2.thisTrialN,trials_2.stepSize,trials_2.intensity,fixation.started,grating.started,key_resp.started,fixation.stopped,grating.stopped,corrans,orrientation,key_resp.corr,trials_2.response,key_resp.rt,participant,session,date,expName,psychopyVersion,frameRate,
0,2,10.0,17.943442899999354,18.46230420000029,18.46230420000029,18.47126129999924,18.762496100000135,right,10.0,1,1,2.3655983000007836,010,001,2023-09-05_17h35.32.533,staircase,2023.1.3,143.59377894459436,
1,2,8.0,20.841620799999873,21.336450900000273,21.336450900000273,21.343215499999133,21.64132679999966,right,8.0,1,1,0.651850000000195,010,001,2023-09-05_17h35.32.533,staircase,2023.1.3,143.59377894459436,
2,2,6.0,22.000029999999242,22.495060699999158,22.495060699999158,22.502067100000204,22.79981079999925,right,6.0,1,1,0.5109809000005043,010,001,2023-09-05_17h35.32.533,staircase,2023.1.3,143.59377894459436,
3,2,4.0,23.015000499999587,23.514835199999652,23.514835199999652,23.514835199999652,23.819742300000144,right,4.0,1,1,0.49503010000080394,010,001,2023-09-05_17h35.32.533,staircase,2023.1.3,143.59377894459436,
4,2,2.0,24.020861299999524,24.520525799998723,24.520525799998723,24.520525799998723,24.825440999999046,left,-2.0,1,1,0.7408895999997185,010,001,2023-09-05_17h35.32.533,staircase,2023.1.3,143.59377894459436,
5,2,1.0,25.269546899999114,25.769139500000165,25.769139500000165,25.769139500000165,26.07418879999932,right,1.0,1,1,1.1067698999995628,010,001,2023-09-05_17h35.32.533,staircase,2023.1.3,143.59377894459436,
6,2,1.0,26.886043299999073,27.385403599999336,27.385403599999336,27.385403599999336,27.690812599999845,right,1.0,1,1,0.961741200002507,010,001,2023-09-05_17h35.32.533,staircase,2023.1.3,143.59377894459436,
7,2,1.0,28.356743399999687,28.856064399999013,28.856064399999013,28.856064399999013,29.161253499998566,left,-1.0,1,1,0.9395427000017662,010,001,2023-09-05_17h35.32.533,staircase,2023.1.3,143.59377894459436,
8,2,1.0,29.811514999999417,30.306570900000224,30.306570900000224,30.313283199999205,30.613789999999426,right,1.0,1,1,0.7559288000011293,010,001,2023-09-05_17h35.32.533,staircase,2023.1.3,143.59377894459436,
9,2,1.0,31.07404879999922,31.568776099999013,31.568776099999013,31.575667499999327,31.873745699998835,right,1.0,1,1,1.4793077000013,010,001,2023-09-05_17h35.32.533,staircase,2023.1.3,143.59377894459436,
10,2,1.0,33.060055199999624,33.55998869999894,33.55998869999894,33.55998869999894,33.867249699998865,left,-1.0,1,1,0.7414924000004248,010,001,2023-09-05_17h35.32.533,staircase,2023.1.3,143.59377894459436,
11,2,1.0,34.308833799999775,34.809050699999716,34.809050699999716,34.809050699999716,35.11336929999925,right,1.0,0,0,0.7997186000011425,010,001,2023-09-05_17h35.32.533,staircase,2023.1.3,143.59377894459436,
12,2,3.0,35.62509279999904,36.11950230000002,36.11950230000002,36.12638100000004,36.4245092000001,right,3.0,1,1,0.6322178000009444,010,001,2023-09-05_17h35.32.533,staircase,2023.1.3,143.59377894459436,
13,2,3.0,36.76452459999928,37.257388699999865,37.257388699999865,37.26428769999984,37.56244799999877,left,-3.0,1,1,1.1714960000008432,010,001,2023-09-05_17h35.32.533,staircase,2023.1.3,143.59377894459436,
14,1,3.0,38.44149229999857,38.93631379999897,38.93631379999897,38.94326960000035,39.241225300000224,right,3.0,1,1,0.64220639999985,010,001,2023-09-05_17h35.32.533,staircase,2023.1.3,143.59377894459436,
15,1,2.0,39.58805129999928,40.087898799998584,40.087898799998584,40.087898799998584,40.39286869999887,left,-2.0,1,1,0.6643377000018518,010,001,2023-09-05_17h35.32.533,staircase,2023.1.3,143.59377894459436,
16,1,2.0,40.76546379999854,41.2600642999987,41.2600642999987,41.26691000000028,41.56530380000004,right,2.0,1,1,1.141661400000885,010,001,2023-09-05_17h35.32.533,staircase,2023.1.3,143.59377894459436,
17,1,2.0,42.41158019999966,42.911346400000184,42.911346400000184,42.911346400000184,43.21618699999999,right,2.0,1,1,1.2733762000007118,010,001,2023-09-05_17h35.32.533,staircase,2023.1.3,143.59377894459436,
18,1,1.0,44.19439489999968,44.69388719999915,44.69388719999915,44.69388719999915,44.99911549999888,left,-1.0,1,1,1.990099000000555,010,001,2023-09-05_17h35.32.533,staircase,2023.1.3,143.59377894459436,
19,1,1.0,46.696846099999675,47.19148829999904,47.19148829999904,47.19846069999949,47.49683619999996,right,1.0,1,1,2.031493500000579,010,001,2023-09-05_17h35.32.533,staircase,2023.1.3,143.59377894459436,
20,1,1.0,49.23075969999991,49.73046599999907,49.73046599999907,49.73046599999907,50.035491399999955,left,-1.0,1,1,0.9364883000016562,010,001,2023-09-05_17h35.32.533,staircase,2023.1.3,143.59377894459436,
21,1,1.0,50.67840259999866,51.17342959999951,51.17342959999951,51.18036149999898,51.478585400000156,right,1.0,0,0,1.1880129000019224,010,001,2023-09-05_17h35.32.533,staircase,2023.1.3,143.59377894459436,
22,1,2.0,52.373477600000115,52.873455699998885,52.873455699998885,52.873455699998885,53.17822989999877,right,2.0,1,1,2.1137917000014568,010,001,2023-09-05_17h35.32.533,staircase,2023.1.3,143.59377894459436,
23,1,2.0,54.99568790000012,55.48877579999862,55.48877579999862,55.495650699998805,55.794438699998864,left,-2.0,1,1,0.7726632000012614,010,001,2023-09-05_17h35.32.533,staircase,2023.1.3,143.59377894459436,
24,0.5,2.0,56.272016099999746,56.771617700000206,56.771617700000206,56.771617700000206,57.07677999999942,left,-2.0,1,1,2.4274398000015935,010,001,2023-09-05_17h35.32.533,staircase,2023.1.3,143.59377894459436,
25,0.5,1.5,59.211611799999446,59.706330299999536,59.706330299999536,59.71395990000019,60.01149929999883,left,-1.5,1,1,1.2689170000012382,010,001,2023-09-05_17h35.32.533,staircase,2023.1.3,143.59377894459436,
26,0.5,1.5,60.98256299999957,61.48255590000008,61.48255590000008,61.48255590000008,61.78716489999897,left,-1.5,1,1,0.8375731000014639,010,001,2023-09-05_17h35.32.533,staircase,2023.1.3,143.59377894459436,
27,0.5,1.5,62.32835290000003,62.828380999999354,62.828380999999354,62.828380999999354,63.133702600000106,right,1.5,1,1,0.6453552000002674,010,001,2023-09-05_17h35.32.533,staircase,2023.1.3,143.59377894459436,
28,0.5,1.0,63.48505309999928,63.97978039999907,63.97978039999907,63.98655390000022,64.2844839999998,right,1.0,1,1,1.7498135000005277,010,001,2023-09-05_17h35.32.533,staircase,2023.1.3,143.59377894459436,
29,0.5,1.0,65.74140719999923,66.24132079999981,66.24132079999981,66.24132079999981,66.54617529999996,left,-1.0,1,1,0.8313423000017792,010,001,2023-09-05_17h35.32.533,staircase,2023.1.3,143.59377894459436,
30,0.5,1.0,67.08051139999952,67.58000530000027,67.58000530000027,67.58000530000027,67.88523559999885,right,1.0,1,1,2.5823041000003286,010,001,2023-09-05_17h35.32.533,staircase,2023.1.3,143.59377894459436,
31,0.5,1.0,70.17425980000007,70.67395839999881,70.67395839999881,70.67395839999881,70.97897069999999,right,1.0,1,1,1.1342115999996167,010,001,2023-09-05_17h35.32.533,staircase,2023.1.3,143.59377894459436,
32,0.5,1.0,71.81886649999979,72.31811000000016,72.31811000000016,72.31811000000016,72.62327759999971,left,-1.0,1,1,1.2556452000007994,010,001,2023-09-05_17h35.32.533,staircase,2023.1.3,143.59377894459436,
33,0.5,1.0,73.58044879999943,74.08004179999989,74.08004179999989,74.08004179999989,74.38514860000032,right,1.0,1,1,0.7926444000004267,010,001,2023-09-05_17h35.32.533,staircase,2023.1.3,143.59377894459436,
34,0.5,1.0,74.88472189999993,75.38420640000004,75.38420640000004,75.38420640000004,75.68936620000022,left,-1.0,1,1,0.5466881000011199,010,001,2023-09-05_17h35.32.533,staircase,2023.1.3,143.59377894459436,
35,0.5,1.0,75.9391885999994,76.4390954999999,76.4390954999999,76.4390954999999,76.7438977999991,right,1.0,0,0,0.6185744000013074,010,001,2023-09-05_17h35.32.533,staircase,2023.1.3,143.59377894459436,
36,0.5,1.5,77.06995479999932,77.56967929999882,77.56967929999882,77.56967929999882,77.87514029999875,left,-1.5,0,0,0.3690520000000106,010,001,2023-09-05_17h35.32.533,staircase,2023.1.3,143.59377894459436,
37,0.5,2.0,77.95111120000001,78.45065849999992,78.45065849999992,78.45065849999992,78.75568949999979,right,2.0,1,1,0.5009416000011697,010,001,2023-09-05_17h35.32.533,staircase,2023.1.3,143.59377894459436,
38,0.5,2.0,78.96384469999975,79.46353269999963,79.46353269999963,79.46353269999963,79.76873779999914,right,2.0,0,0,1.1898478000002797,010,001,2023-09-05_17h35.32.533,staircase,2023.1.3,143.59377894459436,
39,0.5,2.5,80.66343899999993,81.16329020000012,81.16329020000012,81.16329020000012,81.46861609999905,right,2.5,1,1,0.8028118000001996,010,001,2023-09-05_17h35.32.533,staircase,2023.1.3,143.59377894459436,
40,0.5,2.5,81.97475739999936,82.47412239999903,82.47412239999903,82.47412239999903,82.77920799999993,right,2.5,1,1,0.6601221000000805,010,001,2023-09-05_17h35.32.533,staircase,2023.1.3,143.59377894459436,
41,0.5,2.5,83.14693989999978,83.6474621999987,83.6474621999987,83.6474621999987,83.95186379999905,right,2.5,1,1,0.3452978000004805,010,001,2023-09-05_17h35.32.533,staircase,2023.1.3,143.59377894459436,
42,0.5,2.0,84.00055259999863,84.50011409999934,84.50011409999934,84.50011409999934,,left,-2.0,0,0,0.25259139999980107,010,001,2023-09-05_17h35.32.533,staircase,2023.1.3,143.59377894459436,
43,0.5,2.5,84.7634521,85.2629108000001,85.2629108000001,85.2629108000001,85.56826889999866,left,-2.5,1,1,0.5128204000011465,010,001,2023-09-05_17h35.32.533,staircase,2023.1.3,143.59377894459436,
44,0.5,2.5,85.78328409999995,86.28310659999988,86.28310659999988,86.28310659999988,86.58794309999939,left,-2.5,1,1,0.4409562000000733,010,001,2023-09-05_17h35.32.533,staircase,2023.1.3,143.59377894459436,
45,0.5,2.5,86.73358819999885,87.23331909999979,87.23331909999979,87.23331909999979,,left,-2.5,1,1,0.28964040000028035,010,001,2023-09-05_17h35.32.533,staircase,2023.1.3,143.59377894459436,
46,0.5,2.0,87.53638129999854,88.03124070000013,88.03124070000013,88.03804479999962,88.33032439999988,right,2.0,0,0,0.4801872000007279,010,001,2023-09-05_17h35.32.533,staircase,2023.1.3,143.59377894459436,
47,0.5,2.5,88.52840499999911,89.02802379999957,89.02802379999957,89.03760989999864,89.32846719999907,right,2.5,1,1,0.6502965000017866,010,001,2023-09-05_17h35.32.533,staircase,2023.1.3,143.59377894459436,
48,0.5,2.5,89.69398509999883,90.18856210000013,90.18856210000013,90.19552209999893,90.4937589000001,right,2.5,1,1,0.6573134000009304,010,001,2023-09-05_17h35.32.533,staircase,2023.1.3,143.59377894459436,
49,0.5,2.5,90.85422440000002,91.35394730000007,91.35394730000007,91.35394730000007,91.65902509999978,right,2.5,1,1,0.4710733000010805,010,001,2023-09-05_17h35.32.533,staircase,2023.1.3,143.59377894459436,
50,0.5,2.0,91.8325119000001,92.33209410000018,92.33209410000018,92.33209410000018,92.63731559999906,right,2.0,1,1,0.38630490000105056,010,001,2023-09-05_17h35.32.533,staircase,2023.1.3,143.59377894459436,
51,0.5,2.0,92.72736489999988,93.22690289999991,93.22690289999991,93.22690289999991,93.53199399999903,right,2.0,1,1,0.4326935000008234,010,001,2023-09-05_17h35.32.533,staircase,2023.1.3,143.59377894459436,
52,0.5,2.0,93.67593229999875,94.17044669999996,94.17044669999996,94.17725450000034,94.47551869999916,right,2.0,1,1,0.35940860000118846,010,001,2023-09-05_17h35.32.533,staircase,2023.1.3,143.59377894459436,
53,0.5,1.5,94.5379858999986,95.03773209999963,95.03773209999963,95.03773209999963,95.34264289999919,right,1.5,1,1,0.40605990000221936,010,001,2023-09-05_17h35.32.533,staircase,2023.1.3,143.59377894459436,
54,0.5,1.5,95.46082399999977,95.9538266999989,95.9538266999989,95.9606031000003,96.25857429999996,left,-1.5,1,1,0.535884700000679,010,001,2023-09-05_17h35.32.533,staircase,2023.1.3,143.59377894459436,
55,0.5,1.5,96.50820999999996,97.00082370000018,97.00082370000018,97.00843669999995,97.30613350000021,right,1.5,1,1,0.6784084000009898,010,001,2023-09-05_17h35.32.533,staircase,2023.1.3,143.59377894459436,
56,0.5,1.0,97.68770099999892,98.18740079999952,98.18740079999952,98.18740079999952,98.49207980000028,right,1.0,0,0,0.464302400001543,010,001,2023-09-05_17h35.32.533,staircase,2023.1.3,143.59377894459436,
57,0.5,1.5,98.65870100000029,99.15882369999963,99.15882369999963,99.15882369999963,99.4635030999998,left,-1.5,1,1,0.4910031000017625,010,001,2023-09-05_17h35.32.533,staircase,2023.1.3,143.59377894459436,
58,0.5,1.5,99.66284009999981,100.15747779999947,100.15747779999947,100.16443900000013,100.46281590000035,right,1.5,1,1,0.538879800000359,010,001,2023-09-05_17h35.32.533,staircase,2023.1.3,143.59377894459436,
59,0.5,1.5,100.71029429999908,101.20492000000013,101.20492000000013,101.21179479999955,101.50979409999854,left,-1.5,1,1,0.373186100001476,010,001,2023-09-05_17h35.32.533,staircase,2023.1.3,143.59377894459436,
60,0.5,1.0,101.58618339999884,102.0860120999987,102.0860120999987,102.0860120999987,102.39126199999919,right,1.0,0,0,0.436123100002078,010,001,2023-09-05_17h35.32.533,staircase,2023.1.3,143.59377894459436,
61,0.5,1.5,102.5347157999986,103.02936599999884,103.02936599999884,103.03608229999918,103.33432100000027,right,1.5,1,1,0.7864139000012074,010,001,2023-09-05_17h35.32.533,staircase,2023.1.3,143.59377894459436,
62,0.5,1.5,103.83198409999932,104.32689509999909,104.32689509999909,104.33378439999979,104.63155469999947,right,1.5,1,1,0.5954171000012138,010,001,2023-09-05_17h35.32.533,staircase,2023.1.3,143.59377894459436,
63,0.5,1.5,104.93004039999869,105.43010729999878,105.43010729999878,105.43010729999878,105.73487639999985,right,1.5,1,1,0.3464144000008673,010,001,2023-09-05_17h35.32.533,staircase,2023.1.3,143.59377894459436,
64,0.5,1.0,105.78826599999957,106.28297639999982,106.28297639999982,106.28998839999986,106.58795079999982,right,1.0,1,1,0.5060968000016146,010,001,2023-09-05_17h35.32.533,staircase,2023.1.3,143.59377894459436,
65,0.5,1.0,106.80082159999984,107.29589959999976,107.29589959999976,107.30278720000024,107.60079059999953,left,-1.0,0,0,0.3040811000009853,010,001,2023-09-05_17h35.32.533,staircase,2023.1.3,143.59377894459436,
66,0.5,1.5,107.60772539999925,108.10724859999937,108.10724859999937,108.10724859999937,108.41245039999922,left,-1.5,1,1,0.8267480000013165,010,001,2023-09-05_17h35.32.533,staircase,2023.1.3,143.59377894459436,
67,0.5,1.5,108.94692819999909,109.44748009999967,109.44748009999967,109.44748009999967,109.75156099999913,right,1.5,0,0,0.8470714000013686,010,001,2023-09-05_17h35.32.533,staircase,2023.1.3,143.59377894459436,
68,0.5,2.0,110.31149259999984,110.806283599999,110.806283599999,110.81311069999902,111.11112559999856,right,2.0,1,1,0.7340572000011889,010,001,2023-09-05_17h35.32.533,staircase,2023.1.3,143.59377894459436,
69,0.5,2.0,111.55315729999893,112.04774589999943,112.04774589999943,112.05462989999978,112.35272749999967,right,2.0,1,1,0.41426290000163135,010,001,2023-09-05_17h35.32.533,staircase,2023.1.3,143.59377894459436,
70,0.5,2.0,112.4707486999996,112.97029339999972,112.97029339999972,112.97029339999972,113.27561029999924,left,-2.0,1,1,0.8185876000006829,010,001,2023-09-05_17h35.32.533,staircase,2023.1.3,143.59377894459436,
71,0.5,1.5,113.80067489999965,114.29570889999923,114.29570889999923,114.3025179999986,114.60046469999907,left,-1.5,1,1,0.472023000000263,010,001,2023-09-05_17h35.32.533,staircase,2023.1.3,143.59377894459436,
72,0.5,1.5,114.78082369999902,115.28033299999879,115.28033299999879,115.28033299999879,115.58574829999998,right,1.5,0,0,0.3390064000013808,010,001,2023-09-05_17h35.32.533,staircase,2023.1.3,143.59377894459436,
73,0.5,2.0,115.62763449999875,116.1268330999992,116.1268330999992,116.1268330999992,116.43198049999955,left,-2.0,1,1,0.482171700001345,010,001,2023-09-05_17h35.32.533,staircase,2023.1.3,143.59377894459436,
74,0.5,2.0,116.61922479999885,117.1188347999996,117.1188347999996,117.1188347999996,117.42405329999929,right,2.0,0,0,0.3668066000009276,010,001,2023-09-05_17h35.32.533,staircase,2023.1.3,143.59377894459436,
75,0.5,2.5,117.49830219999967,117.99315829999978,117.99315829999978,118.00000179999915,118.29792540000017,left,-2.5,1,1,0.45528080000076443,010,001,2023-09-05_17h35.32.533,staircase,2023.1.3,143.59377894459436,
76,0.5,2.5,118.4623219999994,118.95735149999928,118.95735149999928,118.96452589999899,119.26282919999903,right,2.5,1,1,0.6161439000006794,010,001,2023-09-05_17h35.32.533,staircase,2023.1.3,143.59377894459436,
77,0.5,2.5,119.58159279999927,120.0813693,120.0813693,120.0813693,120.38643419999971,left,-2.5,0,0,0.4871026000000711,010,001,2023-09-05_17h35.32.533,staircase,2023.1.3,143.59377894459436,
78,0.5,3.0,120.5805382999988,121.0802507999997,121.0802507999997,121.0802507999997,121.38505489999989,right,3.0,0,0,0.4253855000006297,010,001,2023-09-05_17h35.32.533,staircase,2023.1.3,143.59377894459436,
79,0.5,3.5,121.5169079999996,122.01668139999856,122.01668139999856,122.01668139999856,122.32196189999922,right,3.5,0,0,1.4746584000004077,010,001,2023-09-05_17h35.32.533,staircase,2023.1.3,143.59377894459436,
80,0.5,4.0,123.50596669999868,124.00085659999968,124.00085659999968,124.00791670000035,124.30606429999898,left,-4.0,1,1,1.0173721999999543,010,001,2023-09-05_17h35.32.533,staircase,2023.1.3,143.59377894459436,
81,0.5,4.0,125.02740569999878,125.52673340000001,125.52673340000001,125.52673340000001,125.83182309999938,left,-4.0,1,1,0.8698139000007359,010,001,2023-09-05_17h35.32.533,staircase,2023.1.3,143.59377894459436,
82,0.5,4.0,126.40775669999857,126.90741770000022,126.90741770000022,126.90741770000022,127.2123636999986,right,4.0,1,1,0.5449492000007012,010,001,2023-09-05_17h35.32.533,staircase,2023.1.3,143.59377894459436,
83,0.5,3.5,127.46224869999969,127.96194800000012,127.96194800000012,127.96194800000012,128.26678170000014,right,3.5,1,1,0.4101620000001276,010,001,2023-09-05_17h35.32.533,staircase,2023.1.3,143.59377894459436,
84,0.5,3.5,128.38529969999945,128.88438549999955,128.88438549999955,128.8913668999994,129.1897814999993,left,-3.5,0,0,0.3027440000005299,010,001,2023-09-05_17h35.32.533,staircase,2023.1.3,143.59377894459436,
85,0.5,4.0,129.19663539999965,129.6973753000002,129.6973753000002,129.6973753000002,130.00108509999882,left,-4.0,1,1,0.7910775000000285,010,001,2023-09-05_17h35.32.533,staircase,2023.1.3,143.59377894459436,
86,0.5,4.0,130.50062819999948,131.00040929999886,131.00040929999886,131.00040929999886,131.3054863999987,right,4.0,1,1,2.0721283000020776,010,001,2023-09-05_17h35.32.533,staircase,2023.1.3,143.59377894459436,
87,0.5,4.0,133.08121869999923,133.58130960000017,133.58130960000017,133.58130960000017,133.88597630000004,left,-4.0,1,1,0.7374341000013374,010,001,2023-09-05_17h35.32.533,staircase,2023.1.3,143.59377894459436,
88,0.5,3.5,134.33520159999898,134.82982540000012,134.82982540000012,134.83687929999905,135.13481019999927,left,-3.5,1,1,0.8053806999996596,010,001,2023-09-05_17h35.32.533,staircase,2023.1.3,143.59377894459436,
89,0.5,3.5,135.6482546999996,136.14788189999854,136.14788189999854,136.14788189999854,136.44581909999943,left,-3.5,1,1,0.6719742000004771,010,001,2023-09-05_17h35.32.533,staircase,2023.1.3,143.59377894459436,
90,0.5,3.5,136.82751329999883,137.3271619999996,137.3271619999996,137.3271619999996,137.6325598000003,left,-3.5,1,1,0.629442100000233,010,001,2023-09-05_17h35.32.533,staircase,2023.1.3,143.59377894459436,
91,0.5,3.0,137.96548079999957,138.46485209999992,138.46485209999992,138.46485209999992,138.77010530000007,right,3.0,1,1,0.61432220000097,010,001,2023-09-05_17h35.32.533,staircase,2023.1.3,143.59377894459436,
92,0.5,3.0,139.0889731999996,139.58887010000035,139.58887010000035,139.58887010000035,139.89379459999873,right,3.0,1,1,0.497435500001302,010,001,2023-09-05_17h35.32.533,staircase,2023.1.3,143.59377894459436,
93,0.5,3.0,140.09487199999967,140.59450119999929,140.59450119999929,140.59450119999929,140.89977349999936,left,-3.0,1,1,0.5767059000008885,010,001,2023-09-05_17h35.32.533,staircase,2023.1.3,143.59377894459436,
94,0.5,2.5,141.1841542000002,141.68377519999922,141.68377519999922,141.68377519999922,141.98916049999934,left,-2.5,1,1,0.5113252999999531,010,001,2023-09-05_17h35.32.533,staircase,2023.1.3,143.59377894459436,
95,0.5,2.5,142.20392229999925,142.70323649999955,142.70323649999955,142.70323649999955,143.0084558999988,right,2.5,0,0,0.41792570000143314,010,001,2023-09-05_17h35.32.533,staircase,2023.1.3,143.59377894459436,
96,0.5,3.0,143.133405999999,143.63311819999944,143.63311819999944,143.63311819999944,143.93819599999915,right,3.0,0,0,0.4650030000011611,010,001,2023-09-05_17h35.32.533,staircase,2023.1.3,143.59377894459436,
97,0.5,3.5,144.10476059999928,144.6043153999999,144.6043153999999,144.6043153999999,144.9097540999992,left,-3.5,1,1,0.8381227999998373,010,001,2023-09-05_17h35.32.533,staircase,2023.1.3,143.59377894459436,
98,0.5,3.5,145.45057769999949,145.9502539999994,145.9502539999994,145.9502539999994,146.2551139999996,right,3.5,1,1,2.494027799999458,010,001,2023-09-05_17h35.32.533,staircase,2023.1.3,143.59377894459436,
99,0.5,3.5,148.45435629999884,148.95397539999976,148.95397539999976,148.95397539999976,149.25896399999874,left,-3.5,1,1,1.2746917000004032,010,001,2023-09-05_17h35.32.533,staircase,2023.1.3,143.59377894459436,
100,0.5,3.0,150.23726530000022,150.73686429999907,150.73686429999907,150.73686429999907,151.04171320000023,left,-3.0,1,1,0.7314602000024024,010,001,2023-09-05_17h35.32.533,staircase,2023.1.3,143.59377894459436,
101,0.5,3.0,151.48402759999954,151.9786081000002,151.9786081000002,151.9854125999991,152.2840802999999,left,-3.0,1,1,0.49951060000057623,010,001,2023-09-05_17h35.32.533,staircase,2023.1.3,143.59377894459436,
102,0.5,3.0,152.49003269999957,152.98465579999902,152.98465579999902,152.99164559999917,153.28958909999892,left,-3.0,1,1,0.35649280000143335,010,001,2023-09-05_17h35.32.533,staircase,2023.1.3,143.59377894459436,
103,0.5,2.5,153.35201039999993,153.8516354000003,153.8516354000003,153.8516354000003,154.15675310000006,left,-2.5,1,1,0.47325610000007146,010,001,2023-09-05_17h35.32.533,staircase,2023.1.3,143.59377894459436,
104,0.5,2.5,154.33712249999917,154.83701829999882,154.83701829999882,154.83701829999882,155.14203739999903,right,2.5,1,1,0.5424573999989661,010,001,2023-09-05_17h35.32.533,staircase,2023.1.3,143.59377894459436,
105,0.5,2.5,155.39158879999923,155.89149109999926,155.89149109999926,155.89149109999926,156.1965170000003,left,-2.5,1,1,0.4811341000004177,010,001,2023-09-05_17h35.32.533,staircase,2023.1.3,143.59377894459436,
106,0.5,2.0,156.38871349999863,156.88327949999984,156.88327949999984,156.8901520999989,157.1884199999986,left,-2.0,0,0,0.6534983000001375,010,001,2023-09-05_17h35.32.533,staircase,2023.1.3,143.59377894459436,
107,0.5,2.5,157.55401119999988,158.04859159999978,158.04859159999978,158.05547619999925,158.35370169999987,right,2.5,1,1,1.4367056999999477,010,001,2023-09-05_17h35.32.533,staircase,2023.1.3,143.59377894459436,
108,0.5,2.5,159.49846329999855,159.99838269999964,159.99838269999964,159.99838269999964,160.3039616999995,left,-2.5,1,1,0.6989534000003914,010,001,2023-09-05_17h35.32.533,staircase,2023.1.3,143.59377894459436,
109,0.5,2.5,160.70579240000006,161.20535459999883,161.20535459999883,161.20535459999883,161.51025579999987,left,-2.5,1,1,0.7538867000002938,010,001,2023-09-05_17h35.32.533,staircase,2023.1.3,143.59377894459436,
110,0.5,2.0,161.96815059999972,162.46808359999886,162.46808359999886,162.46808359999886,162.77316289999908,left,-2.0,1,1,0.4991680000002816,010,001,2023-09-05_17h35.32.533,staircase,2023.1.3,143.59377894459436,
111,0.5,2.0,162.97402349999902,163.47416410000005,163.47416410000005,163.47416410000005,163.77877420000004,left,-2.0,1,1,0.4563897000007273,010,001,2023-09-05_17h35.32.533,staircase,2023.1.3,143.59377894459436,
112,0.5,2.0,163.94329189999917,164.4377760999996,164.4377760999996,164.44487189999927,164.74289849999877,left,-2.0,1,1,0.31411260000095353,010,001,2023-09-05_17h35.32.533,staircase,2023.1.3,143.59377894459436,
113,0.5,1.5,164.7637219999997,165.26367120000032,165.26367120000032,165.26367120000032,165.56876009999905,right,1.5,0,0,0.3969959000005474,010,001,2023-09-05_17h35.32.533,staircase,2023.1.3,143.59377894459436,
114,0.5,2.0,165.67262010000013,166.17231439999887,166.17231439999887,166.17231439999887,166.4773585999992,right,2.0,1,1,0.329346099999384,010,001,2023-09-05_17h35.32.533,staircase,2023.1.3,143.59377894459436,
115,0.5,2.0,166.51194629999918,167.01246679999895,167.01246679999895,167.01246679999895,167.31651179999972,right,2.0,1,1,0.3168550000009418,010,001,2023-09-05_17h35.32.533,staircase,2023.1.3,143.59377894459436,
116,0.5,2.0,167.33775160000005,167.83715759999905,167.83715759999905,167.83715759999905,168.14239249999991,right,2.0,1,1,0.31068600000071456,010,001,2023-09-05_17h35.32.533,staircase,2023.1.3,143.59377894459436,
117,0.5,1.5,168.16124759999911,168.65572989999964,168.65572989999964,168.6626127999989,168.96077390000028,left,-1.5,1,1,0.48675850000108767,010,001,2023-09-05_17h35.32.533,staircase,2023.1.3,143.59377894459436,
118,0.5,1.5,169.1549218,169.6548726000001,169.6548726000001,169.6548726000001,169.95974260000003,right,1.5,1,1,0.39635810000072524,010,001,2023-09-05_17h35.32.533,staircase,2023.1.3,143.59377894459436,
119,0.5,1.5,170.06904450000002,170.5633711999999,170.5633711999999,170.57046569999875,170.86875619999955,left,-1.5,1,1,0.3798184000006586,010,001,2023-09-05_17h35.32.533,staircase,2023.1.3,143.59377894459436,
120,0.5,1.0,170.9569324999993,171.4561974999997,171.4561974999997,171.465653199999,171.7565427999998,left,-1.0,0,0,0.448087900000246,010,001,2023-09-05_17h35.32.533,staircase,2023.1.3,143.59377894459436,
121,0.5,1.5,171.91621419999865,172.41580319999957,172.41580319999957,172.41580319999957,172.7206346999992,right,1.5,1,1,0.6041893000001437,010,001,2023-09-05_17h35.32.533,staircase,2023.1.3,143.59377894459436,
122,0.5,1.5,173.03303719999894,173.53259780000008,173.53259780000008,173.53259780000008,173.83773089999886,left,-1.5,1,1,0.493844500000705,010,001,2023-09-05_17h35.32.533,staircase,2023.1.3,143.59377894459436,
123,0.5,1.5,174.03898969999864,174.5384314999992,174.5384314999992,174.5384314999992,174.8435740999994,right,1.5,1,1,0.5776028000000224,010,001,2023-09-05_17h35.32.533,staircase,2023.1.3,143.59377894459436,
124,0.5,1.0,175.13291000000027,175.6276227999988,175.6276227999988,175.6344737999989,175.9327816999994,right,1.0,1,1,0.3520259000015358,010,001,2023-09-05_17h35.32.533,staircase,2023.1.3,143.59377894459436,
125,0.5,1.0,175.9881377999991,176.48796539999967,176.48796539999967,176.48796539999967,176.79305159999967,left,-1.0,0,0,0.30509800000072573,010,001,2023-09-05_17h35.32.533,staircase,2023.1.3,143.59377894459436,
126,0.5,1.5,176.80006859999958,177.2997321999992,177.2997321999992,177.2997321999992,177.60477209999954,right,1.5,0,0,0.3974872000017058,010,001,2023-09-05_17h35.32.533,staircase,2023.1.3,143.59377894459436,
127,0.5,2.0,177.7087505999989,178.20809809999992,178.20809809999992,178.20809809999992,178.51335149999977,left,-2.0,1,1,0.31540619999941555,010,001,2023-09-05_17h35.32.533,staircase,2023.1.3,143.59377894459436,
128,0.5,2.0,178.53422359999968,179.03372449999915,179.03372449999915,179.03372449999915,179.33954300000005,left,-2.0,1,1,0.486736100001508,010,001,2023-09-05_17h35.32.533,staircase,2023.1.3,143.59377894459436,
129,0.5,2.0,179.5332798999989,180.03294279999864,180.03294279999864,180.03294279999864,180.3380619999989,right,2.0,1,1,0.5903622000023461,010,001,2023-09-05_17h35.32.533,staircase,2023.1.3,143.59377894459436,
130,0.5,1.5,180.63627739999902,181.13601190000009,181.13601190000009,181.13601190000009,181.44138049999856,left,-1.5,1,1,0.645840600001975,010,001,2023-09-05_17h35.32.533,staircase,2023.1.3,143.59377894459436,
131,0.5,1.5,181.79480630000035,182.29461309999897,182.29461309999897,182.29461309999897,182.59974989999864,right,1.5,0,0,0.7115267999997741,010,001,2023-09-05_17h35.32.533,staircase,2023.1.3,143.59377894459436,
132,0.5,2.0,183.0207649999993,183.5154595999993,183.5154595999993,183.52235269999983,183.82043290000001,left,-2.0,1,1,0.5804874000004929,010,001,2023-09-05_17h35.32.533,staircase,2023.1.3,143.59377894459436,
133,0.5,2.0,184.10483899999963,184.60457099999985,184.60457099999985,184.60457099999985,184.9099710999999,left,-2.0,0,0,0.5964413000001514,010,001,2023-09-05_17h35.32.533,staircase,2023.1.3,143.59377894459436,
134,0.5,2.5,185.20772579999903,185.70779949999996,185.70779949999996,185.70779949999996,186.01271929999893,left,-2.5,0,0,0.6287675000003219,010,001,2023-09-05_17h35.32.533,staircase,2023.1.3,143.59377894459436,
135,0.5,3.0,186.34554339999886,186.84499460000006,186.84499460000006,186.84499460000006,187.15025160000005,right,3.0,1,1,0.6224948000017321,010,001,2023-09-05_17h35.32.533,staircase,2023.1.3,143.59377894459436,
136,0.5,3.0,187.47636769999917,187.9759252999993,187.9759252999993,187.9759252999993,188.28092300000026,right,3.0,1,1,0.6839323000003787,010,001,2023-09-05_17h35.32.533,staircase,2023.1.3,143.59377894459436,
137,0.5,3.0,188.66978480000034,189.1690619000001,189.1690619000001,189.1690619000001,189.4728243999998,left,-3.0,0,0,0.29721190000054776,010,001,2023-09-05_17h35.32.533,staircase,2023.1.3,143.59377894459436,
138,0.5,3.5,189.48670200000015,189.97413719999895,189.97413719999895,189.98792799999865,190.27899660000003,left,-3.5,1,1,1.5527173999998922,010,001,2023-09-05_17h35.32.533,staircase,2023.1.3,143.59377894459436,
139,0.5,3.5,191.53464079999867,192.03442519999953,192.03442519999953,192.03442519999953,192.33933699999943,left,-3.5,1,1,0.6909135000005335,010,001,2023-09-05_17h35.32.533,staircase,2023.1.3,143.59377894459436,
140,0.5,3.5,192.73472719999882,193.2344248999998,193.2344248999998,193.2344248999998,193.5397269999994,left,-3.5,1,1,0.6675126000009186,010,001,2023-09-05_17h35.32.533,staircase,2023.1.3,143.59377894459436,
141,0.5,3.0,193.9139610000002,194.4136572999996,194.4136572999996,194.4136572999996,194.7186174999988,right,3.0,0,0,0.49189860000115004,010,001,2023-09-05_17h35.32.533,staircase,2023.1.3,143.59377894459436,
142,0.5,3.5,194.91312599999947,195.4135064000002,195.4135064000002,195.4135064000002,195.71808769999916,right,3.5,1,1,0.8069474000003538,010,001,2023-09-05_17h35.32.533,staircase,2023.1.3,143.59377894459436,
143,0.5,3.5,196.23145750000003,196.73100299999896,196.73100299999896,196.73100299999896,197.03595929999938,right,3.5,1,1,0.4611013000012463,010,001,2023-09-05_17h35.32.533,staircase,2023.1.3,143.59377894459436,
144,0.5,3.5,197.20248399999946,197.70192309999948,197.70192309999948,197.70192309999948,198.00704399999995,right,3.5,1,1,0.3605148000006011,010,001,2023-09-05_17h35.32.533,staircase,2023.1.3,143.59377894459436,
145,0.5,3.0,198.06953629999953,198.56906049999998,198.56906049999998,198.56906049999998,198.87415279999914,right,3.0,1,1,0.41681600000083563,010,001,2023-09-05_17h35.32.533,staircase,2023.1.3,143.59377894459436,
146,0.5,3.0,198.99913360000028,199.49884089999978,199.49884089999978,199.49884089999978,199.80377359999875,right,3.0,1,1,0.3134939999999915,010,001,2023-09-05_17h35.32.533,staircase,2023.1.3,143.59377894459436,
147,0.5,3.0,199.82454770000004,200.32412730000033,200.32412730000033,200.32412730000033,200.62923659999979,right,3.0,1,1,0.35103500000150234,010,001,2023-09-05_17h35.32.533,staircase,2023.1.3,143.59377894459436,
148,0.5,2.5,200.68487350000032,201.1848186999996,201.1848186999996,201.1848186999996,201.489566799999,left,-2.5,0,0,0.35638460000154737,010,001,2023-09-05_17h35.32.533,staircase,2023.1.3,143.59377894459436,
149,0.5,3.0,201.55696699999862,202.0516351999995,202.0516351999995,202.05866140000035,202.35650999999962,right,3.0,1,1,0.585047200002009,010,001,2023-09-05_17h35.32.533,staircase,2023.1.3,143.59377894459436,
150,0.5,3.0,202.64872409999953,203.1477262999997,203.1477262999997,203.15465509999922,203.45293560000027,right,3.0,1,1,0.37138620000041556,010,001,2023-09-05_17h35.32.533,staircase,2023.1.3,143.59377894459436,
151,0.5,3.0,203.53406319999885,204.02924919999896,204.02924919999896,204.0358600999989,204.33394029999909,right,3.0,1,1,0.413688300001013,010,001,2023-09-05_17h35.32.533,staircase,2023.1.3,143.59377894459436,
152,0.5,2.5,204.45667329999924,204.95131869999932,204.95131869999932,204.95818659999895,205.25648439999895,right,2.5,1,1,0.40669180000077176,010,001,2023-09-05_17h35.32.533,staircase,2023.1.3,143.59377894459436,
153,0.5,2.5,205.36753879999924,205.86536989999877,205.86536989999877,205.87459929999932,206.16564149999977,right,2.5,1,1,0.2941891000009491,010,001,2023-09-05_17h35.32.533,staircase,2023.1.3,143.59377894459436,
154,0.5,2.5,206.1723646999999,206.67185069999869,206.67185069999869,206.67185069999869,206.97678459999952,right,2.5,1,1,0.38716759999988426,010,001,2023-09-05_17h35.32.533,staircase,2023.1.3,143.59377894459436,
155,0.5,2.0,207.06701330000033,207.5666674999993,207.5666674999993,207.5666674999993,207.8717144000002,left,-2.0,0,0,0.4146311999993486,010,001,2023-09-05_17h35.32.533,staircase,2023.1.3,143.59377894459436,
156,0.5,2.5,207.98966119999932,208.48948539999947,208.48948539999947,208.48948539999947,208.7946538999986,left,-2.5,1,1,0.3800392000011925,010,001,2023-09-05_17h35.32.533,staircase,2023.1.3,143.59377894459436,
157,0.5,2.5,208.8779588999987,209.37741529999948,209.37741529999948,209.37741529999948,209.68237859999863,right,2.5,0,0,0.3482685000017227,010,001,2023-09-05_17h35.32.533,staircase,2023.1.3,143.59377894459436,
158,0.5,3.0,209.73804909999853,210.2376323999997,210.2376323999997,210.2376323999997,210.54322899999897,right,3.0,1,1,0.9544442999995226,010,001,2023-09-05_17h35.32.533,staircase,2023.1.3,143.59377894459436,
159,0.5,3.0,211.2017125000002,211.7013451999992,211.7013451999992,211.7013451999992,212.00645809999878,right,3.0,1,1,0.5244819000017742,010,001,2023-09-05_17h35.32.533,staircase,2023.1.3,143.59377894459436,
160,0.5,3.0,212.23531840000032,212.7349032000002,212.7349032000002,212.7349032000002,213.0399854999996,left,-3.0,1,1,0.6115597000007256,010,001,2023-09-05_17h35.32.533,staircase,2023.1.3,143.59377894459436,
161,0.5,2.5,213.3590695999992,213.858793899999,213.858793899999,213.858793899999,214.16401190000033,left,-2.5,1,1,0.39447870000003604,010,001,2023-09-05_17h35.32.533,staircase,2023.1.3,143.59377894459436,
162,0.5,2.5,214.26101169999856,214.76071969999975,214.76071969999975,214.76071969999975,215.06583049999972,right,2.5,1,1,0.47709730000133277,010,001,2023-09-05_17h35.32.533,staircase,2023.1.3,143.59377894459436,
163,0.5,2.5,215.25110529999984,215.7458416999998,215.7458416999998,215.75266959999863,216.05160559999968,right,2.5,1,1,1.686777600001733,010,001,2023-09-05_17h35.32.533,staircase,2023.1.3,143.59377894459436,
164,0.5,2.0,217.45001149999916,217.9452255999986,217.9452255999986,217.95191150000028,218.25006089999988,left,-2.0,1,1,0.6385098000009748,010,001,2023-09-05_17h35.32.533,staircase,2023.1.3,143.59377894459436,
165,0.5,2.0,218.5946473999993,219.08947389999958,219.08947389999958,219.09630469999865,219.3945348999987,right,2.0,1,1,0.5514936000017769,010,001,2023-09-05_17h35.32.533,staircase,2023.1.3,143.59377894459436,
166,0.5,2.0,219.65128019999975,220.15071050000006,220.15071050000006,220.15071050000006,220.45589069999914,left,-2.0,1,1,0.5106455999994068,010,001,2023-09-05_17h35.32.533,staircase,2023.1.3,143.59377894459436,
167,0.5,1.5,220.67107249999935,221.16423570000006,221.16423570000006,221.17111029999978,221.4689142999996,left,-1.5,1,1,0.5394047999998293,010,001,2023-09-05_17h35.32.533,staircase,2023.1.3,143.59377894459436,
168,0.5,1.5,221.71173850000014,222.21155670000007,222.21155670000007,222.21155670000007,222.5165782999993,left,-1.5,1,1,0.4055180000013934,010,001,2023-09-05_17h35.32.533,staircase,2023.1.3,143.59377894459436,
169,0.5,1.5,222.62746779999907,223.12682779999886,223.12682779999886,223.12682779999886,223.43256809999912,left,-1.5,1,1,0.3077952000021469,010,001,2023-09-05_17h35.32.533,staircase,2023.1.3,143.59377894459436,
170,0.5,1.0,223.4508210999993,223.94563910000034,223.94563910000034,223.9523911999986,224.2506169999997,left,-1.0,1,1,0.34318830000120215,010,001,2023-09-05_17h35.32.533,staircase,2023.1.3,143.59377894459436,
171,0.5,1.0,224.2992789,224.7987075000001,224.7987075000001,224.7987075000001,,left,-1.0,1,1,0.27576629999930447,010,001,2023-09-05_17h35.32.533,staircase,2023.1.3,143.59377894459436,
172,0.5,1.0,225.08334269999978,225.5827197999988,225.5827197999988,225.5827197999988,,left,-1.0,1,1,0.28339930000038294,010,001,2023-09-05_17h35.32.533,staircase,2023.1.3,143.59377894459436,
173,0.5,1.0,225.874174999999,226.37415340000007,226.37415340000007,226.37415340000007,,right,1.0,0,0,0.26296410000031756,010,001,2023-09-05_17h35.32.533,staircase,2023.1.3,143.59377894459436,
174,0.5,1.5,226.64908769999965,227.14399029999913,227.14399029999913,227.15073949999896,227.45374749999974,right,1.5,0,0,0.7845106000004307,010,001,2023-09-05_17h35.32.533,staircase,2023.1.3,143.59377894459436,
175,0.5,2.0,227.9426926999986,228.44107499999882,228.44107499999882,228.44782250000026,228.7460269000003,left,-2.0,0,0,0.6795927000002848,010,001,2023-09-05_17h35.32.533,staircase,2023.1.3,143.59377894459436,
176,0.5,2.5,229.12757499999861,229.62734889999956,229.62734889999956,229.62734889999956,229.9322407999989,right,2.5,0,0,0.3100599000008515,010,001,2023-09-05_17h35.32.533,staircase,2023.1.3,143.59377894459436,
177,0.5,3.0,229.95087020000028,230.44586999999956,230.44586999999956,230.45272169999953,230.75081669999963,right,3.0,0,0,1.0496796000006725,010,001,2023-09-05_17h35.32.533,staircase,2023.1.3,143.59377894459436,
178,0.5,3.5,231.5073797999994,232.00676399999975,232.00676399999975,232.00676399999975,232.3116513999994,left,-3.5,1,1,1.4860079000009137,010,001,2023-09-05_17h35.32.533,staircase,2023.1.3,143.59377894459436,
179,0.5,3.5,233.50492630000008,234.00477890000002,234.00477890000002,234.00477890000002,234.3098313999999,left,-3.5,1,1,0.6816027999993821,010,001,2023-09-05_17h35.32.533,staircase,2023.1.3,143.59377894459436,
180,0.5,3.5,234.69832069999939,235.19780399999945,235.19780399999945,235.19780399999945,235.5031538000003,left,-3.5,1,1,0.4033857000013086,010,001,2023-09-05_17h35.32.533,staircase,2023.1.3,143.59377894459436,
181,0.5,3.0,235.6139622999999,236.1137065999992,236.1137065999992,236.1137065999992,236.41858039999897,right,3.0,1,1,0.5206029000000854,010,001,2023-09-05_17h35.32.533,staircase,2023.1.3,143.59377894459436,
182,0.5,3.0,236.64760240000032,237.14706119999937,237.14706119999937,237.14706119999937,237.44997299999886,left,-3.0,1,1,0.5001584000001458,010,001,2023-09-05_17h35.32.533,staircase,2023.1.3,143.59377894459436,
183,0.5,3.0,237.6604845999991,238.15980709999894,238.15980709999894,238.15980709999894,238.46513239999877,left,-3.0,1,1,0.6118516000005911,010,001,2023-09-05_17h35.32.533,staircase,2023.1.3,143.59377894459436,
184,0.5,2.5,238.7841505999986,239.28408800000034,239.28408800000034,239.28408800000034,239.58912039999996,right,2.5,1,1,0.5528466000014305,010,001,2023-09-05_17h35.32.533,staircase,2023.1.3,143.59377894459436,
185,0.5,2.5,239.84565370000018,240.3451972999992,240.3451972999992,240.3451972999992,240.65069140000014,left,-2.5,1,1,0.6171596000003774,010,001,2023-09-05_17h35.32.533,staircase,2023.1.3,143.59377894459436,
186,0.5,2.5,240.96952330000022,241.46900549999918,241.46900549999918,241.46900549999918,241.77430149999964,left,-2.5,1,1,0.5879600000007486,010,001,2023-09-05_17h35.32.533,staircase,2023.1.3,143.59377894459436,
187,0.5,2.0,242.06548999999904,242.56509219999862,242.56509219999862,242.56509219999862,242.87005999999928,right,2.0,1,1,0.5996825000001991,010,001,2023-09-05_17h35.32.533,staircase,2023.1.3,143.59377894459436,
188,0.5,2.0,243.1764721999989,243.67492089999905,243.67492089999905,243.68195519999972,243.98035030000028,left,-2.0,0,0,0.7500362999999197,010,001,2023-09-05_17h35.32.533,staircase,2023.1.3,143.59377894459436,
189,0.5,2.5,244.43813039999986,244.9375291999986,244.9375291999986,244.9375291999986,245.2430465999987,right,2.5,0,0,1.6514197000014974,010,001,2023-09-05_17h35.32.533,staircase,2023.1.3,143.59377894459436,
190,0.5,3.0,246.60243979999905,247.1022471999986,247.1022471999986,247.1022471999986,247.40735969999878,left,-3.0,0,0,2.469756200001939,010,001,2023-09-05_17h35.32.533,staircase,2023.1.3,143.59377894459436,
191,0.5,3.5,249.58375539999906,250.0786049999988,250.0786049999988,250.08531669999866,250.38326509999933,left,-3.5,1,1,0.7259284000010666,010,001,2023-09-05_17h35.32.533,staircase,2023.1.3,143.59377894459436,
192,0.5,3.5,250.8133930999993,251.31309909999982,251.31309909999982,251.31309909999982,251.6181087999994,left,-3.5,1,1,0.45855350000056205,010,001,2023-09-05_17h35.32.533,staircase,2023.1.3,143.59377894459436,
193,0.5,3.5,251.7899183999998,252.28433609999956,252.28433609999956,252.29118579999886,252.58923719999984,right,3.5,1,1,0.6237406000018382,010,001,2023-09-05_17h35.32.533,staircase,2023.1.3,143.59377894459436,
194,0.5,3.0,252.92051279999941,253.41490969999904,253.41490969999904,253.42177699999957,253.72000610000032,right,3.0,1,1,1.656682800001363,010,001,2023-09-05_17h35.32.533,staircase,2023.1.3,143.59377894459436,
195,0.5,3.0,255.08006179999938,255.57975649999935,255.57975649999935,255.57975649999935,255.8845556999986,right,3.0,1,1,1.139204700000846,010,001,2023-09-05_17h35.32.533,staircase,2023.1.3,143.59377894459436,
196,0.5,3.0,256.7308866000003,257.2308419000001,257.2308419000001,257.2308419000001,257.53571759999977,right,3.0,1,1,0.6878465999998298,010,001,2023-09-05_17h35.32.533,staircase,2023.1.3,143.59377894459436,
197,0.5,2.5,257.93124910000006,258.4309388999991,258.4309388999991,258.4309388999991,258.73580179999954,left,-2.5,1,1,0.5450648000005458,010,001,2023-09-05_17h35.32.533,staircase,2023.1.3,143.59377894459436,
198,0.5,2.5,258.9906355000003,259.48528649999935,259.48528649999935,259.4923361000001,259.79021509999984,right,2.5,1,1,0.4888468000008288,010,001,2023-09-05_17h35.32.533,staircase,2023.1.3,143.59377894459436,
199,0.5,2.5,259.98433979999936,260.4844314000002,260.4844314000002,260.4844314000002,260.7891192999996,right,2.5,1,1,0.40898879999986093,010,001,2023-09-05_17h35.32.533,staircase,2023.1.3,143.59377894459436,
