study_words,test_words,trials.thisRepN,trials.thisTrialN,trials.thisN,trials.thisIndex,trials_2.thisRepN,trials_2.thisTrialN,trials_2.thisN,trials_2.thisIndex,text.started,slider.started,slider.response,slider.rt,text_2.started,textbox.started,text_3.started,mouse.started,textbox.text,mouse.x,mouse.y,mouse.leftButton,mouse.midButton,mouse.rightButton,mouse.time,mouse.clicked_name,participant,session,date,expName,psychopyVersion,frameRate,
style,,0,0,0,41,,,,,24.661644000007072,24.661644000007072,4.722222222222222,3.5425533000088762,,,,,,,,,,,,,123019,001,2023-10-04_12h21.07.751,word priming experiment,2023.1.3,144.11672300581515,
library,,0,1,1,19,,,,,28.186366200010525,28.186366200010525,4.722222222222222,0.8600506000220776,,,,,,,,,,,,,123019,001,2023-10-04_12h21.07.751,word priming experiment,2023.1.3,144.11672300581515,
convalescent ,,0,2,2,29,,,,,29.062565400003223,29.062565400003223,4.851851851851852,1.1820892999821808,,,,,,,,,,,,,123019,001,2023-10-04_12h21.07.751,word priming experiment,2023.1.3,144.11672300581515,
wheelchair,,0,3,3,31,,,,,30.25915789999999,30.25915789999999,4.785185185185185,0.9769322999927681,,,,,,,,,,,,,123019,001,2023-10-04_12h21.07.751,word priming experiment,2023.1.3,144.11672300581515,
linguini ,,0,4,4,24,,,,,31.25141570001142,31.25141570001142,4.785185185185185,0.872621699993033,,,,,,,,,,,,,123019,001,2023-10-04_12h21.07.751,word priming experiment,2023.1.3,144.11672300581515,
file,,0,5,5,39,,,,,32.13771060001454,32.13771060001454,4.785185185185185,0.6593568999960553,,,,,,,,,,,,,123019,001,2023-10-04_12h21.07.751,word priming experiment,2023.1.3,144.11672300581515,
view,,0,6,6,36,,,,,32.80916130001424,32.80916130001424,4.785185185185185,0.7173704000015277,,,,,,,,,,,,,123019,001,2023-10-04_12h21.07.751,word priming experiment,2023.1.3,144.11672300581515,
piano,,0,7,7,4,,,,,33.540150700020604,33.540150700020604,4.785185185185185,0.5587383999954909,,,,,,,,,,,,,123019,001,2023-10-04_12h21.07.751,word priming experiment,2023.1.3,144.11672300581515,
panini ,,0,8,8,42,,,,,34.11185880002449,34.11185880002449,4.785185185185185,0.5651966999867,,,,,,,,,,,,,123019,001,2023-10-04_12h21.07.751,word priming experiment,2023.1.3,144.11672300581515,
desktop,,0,9,9,11,,,,,34.691194400016684,34.691194400016684,4.785185185185185,0.5085850000032224,,,,,,,,,,,,,123019,001,2023-10-04_12h21.07.751,word priming experiment,2023.1.3,144.11672300581515,
conspicuous,,0,10,10,40,,,,,35.21375490000355,35.21375490000355,4.785185185185185,2.0519273999962024,,,,,,,,,,,,,123019,001,2023-10-04_12h21.07.751,word priming experiment,2023.1.3,144.11672300581515,
tiger,,0,11,11,1,,,,,37.2780211000063,37.2780211000063,4.785185185185185,0.6909991000138689,,,,,,,,,,,,,123019,001,2023-10-04_12h21.07.751,word priming experiment,2023.1.3,144.11672300581515,
survival,,0,12,12,44,,,,,37.9820355999982,37.9820355999982,4.785185185185185,1.291999199980637,,,,,,,,,,,,,123019,001,2023-10-04_12h21.07.751,word priming experiment,2023.1.3,144.11672300581515,
university,,0,13,13,15,,,,,39.288099299999885,39.288099299999885,4.785185185185185,0.6634836999874096,,,,,,,,,,,,,123019,001,2023-10-04_12h21.07.751,word priming experiment,2023.1.3,144.11672300581515,
bottle ,,0,14,14,5,,,,,39.964329500013264,39.964329500013264,4.785185185185185,0.6290242999966722,,,,,,,,,,,,,123019,001,2023-10-04_12h21.07.751,word priming experiment,2023.1.3,144.11672300581515,
chocolate,,0,15,15,6,,,,,40.60575320001226,40.60575320001226,4.785185185185185,0.6252373000024818,,,,,,,,,,,,,123019,001,2023-10-04_12h21.07.751,word priming experiment,2023.1.3,144.11672300581515,
crescent,,0,16,16,20,,,,,41.243022400012705,41.243022400012705,4.785185185185185,0.6237709000124596,,,,,,,,,,,,,123019,001,2023-10-04_12h21.07.751,word priming experiment,2023.1.3,144.11672300581515,
page,,0,17,17,26,,,,,41.87973580000107,41.87973580000107,4.785185185185185,1.4207696000230499,,,,,,,,,,,,,123019,001,2023-10-04_12h21.07.751,word priming experiment,2023.1.3,144.11672300581515,
purse,,0,18,18,17,,,,,43.312836199998856,43.312836199998856,4.785185185185185,0.6089734999986831,,,,,,,,,,,,,123019,001,2023-10-04_12h21.07.751,word priming experiment,2023.1.3,144.11672300581515,
amnesia,,0,19,19,47,,,,,43.93758210001397,43.93758210001397,4.785185185185185,0.5793208999966737,,,,,,,,,,,,,123019,001,2023-10-04_12h21.07.751,word priming experiment,2023.1.3,144.11672300581515,
security,,0,20,20,28,,,,,44.53010970001924,44.53010970001924,4.785185185185185,2.0582118000020273,,,,,,,,,,,,,123019,001,2023-10-04_12h21.07.751,word priming experiment,2023.1.3,144.11672300581515,
vase,,0,21,21,0,,,,,46.600949700019555,46.600949700019555,4.7518518518518515,1.1224087000009604,,,,,,,,,,,,,123019,001,2023-10-04_12h21.07.751,word priming experiment,2023.1.3,144.11672300581515,
sunlight,,0,22,22,43,,,,,47.73693340001046,47.73693340001046,4.718518518518518,0.9024457999912556,,,,,,,,,,,,,123019,001,2023-10-04_12h21.07.751,word priming experiment,2023.1.3,144.11672300581515,
wire,,0,23,23,45,,,,,48.65391459999955,48.65391459999955,4.737037037037037,0.7951998000207823,,,,,,,,,,,,,123019,001,2023-10-04_12h21.07.751,word priming experiment,2023.1.3,144.11672300581515,
electricity,,0,24,24,23,,,,,49.46257040000637,49.46257040000637,4.7555555555555555,0.8099477999785449,,,,,,,,,,,,,123019,001,2023-10-04_12h21.07.751,word priming experiment,2023.1.3,144.11672300581515,
book,,0,25,25,2,,,,,50.28385980002349,50.28385980002349,4.7555555555555555,0.7388930000015534,,,,,,,,,,,,,123019,001,2023-10-04_12h21.07.751,word priming experiment,2023.1.3,144.11672300581515,
help,,0,26,26,35,,,,,51.03705800001626,51.03705800001626,4.7555555555555555,0.9735592000070028,,,,,,,,,,,,,123019,001,2023-10-04_12h21.07.751,word priming experiment,2023.1.3,144.11672300581515,
hamper,,0,27,27,46,,,,,52.02298460001475,52.02298460001475,4.7555555555555555,1.0469913999841083,,,,,,,,,,,,,123019,001,2023-10-04_12h21.07.751,word priming experiment,2023.1.3,144.11672300581515,
scissor,,0,28,28,38,,,,,53.08304350002436,53.08304350002436,4.7555555555555555,0.6594225000008009,,,,,,,,,,,,,123019,001,2023-10-04_12h21.07.751,word priming experiment,2023.1.3,144.11672300581515,
thunder,,0,29,29,25,,,,,53.754971600021236,53.754971600021236,4.7555555555555555,0.6632908000028692,,,,,,,,,,,,,123019,001,2023-10-04_12h21.07.751,word priming experiment,2023.1.3,144.11672300581515,
pivot,,0,30,30,37,,,,,54.43212969999877,54.43212969999877,4.7555555555555555,0.5790428000036627,,,,,,,,,,,,,123019,001,2023-10-04_12h21.07.751,word priming experiment,2023.1.3,144.11672300581515,
Sing,,0,31,31,30,,,,,55.024697000015294,55.024697000015294,4.7555555555555555,0.5276336000242736,,,,,,,,,,,,,123019,001,2023-10-04_12h21.07.751,word priming experiment,2023.1.3,144.11672300581515,
actor,,0,32,32,9,,,,,55.56431380001595,55.56431380001595,4.7555555555555555,0.5120636999781709,,,,,,,,,,,,,123019,001,2023-10-04_12h21.07.751,word priming experiment,2023.1.3,144.11672300581515,
paint,,0,33,33,14,,,,,56.0895262999984,56.0895262999984,4.7555555555555555,0.5255497000180185,,,,,,,,,,,,,123019,001,2023-10-04_12h21.07.751,word priming experiment,2023.1.3,144.11672300581515,
leaf,,0,34,34,48,,,,,56.62667740002507,56.62667740002507,4.7555555555555555,0.505329100007657,,,,,,,,,,,,,123019,001,2023-10-04_12h21.07.751,word priming experiment,2023.1.3,144.11672300581515,
nose,,0,35,35,49,,,,,57.14450570000918,57.14450570000918,4.7555555555555555,0.49686990000191145,,,,,,,,,,,,,123019,001,2023-10-04_12h21.07.751,word priming experiment,2023.1.3,144.11672300581515,
draught,,0,36,36,7,,,,,57.654445400025,57.654445400025,4.7555555555555555,0.4616876000072807,,,,,,,,,,,,,123019,001,2023-10-04_12h21.07.751,word priming experiment,2023.1.3,144.11672300581515,
format,,0,37,37,32,,,,,58.12828080001054,58.12828080001054,4.7555555555555555,0.5065191000176128,,,,,,,,,,,,,123019,001,2023-10-04_12h21.07.751,word priming experiment,2023.1.3,144.11672300581515,
bag,,0,38,38,12,,,,,58.649486600013915,58.649486600013915,4.7555555555555555,1.0142949000000954,,,,,,,,,,,,,123019,001,2023-10-04_12h21.07.751,word priming experiment,2023.1.3,144.11672300581515,
shade,,0,39,39,21,,,,,59.67609310001717,59.67609310001717,4.7555555555555555,0.5527568999968935,,,,,,,,,,,,,123019,001,2023-10-04_12h21.07.751,word priming experiment,2023.1.3,144.11672300581515,
window,,0,40,40,34,,,,,60.24190120000276,60.24190120000276,4.7555555555555555,0.6822188000078313,,,,,,,,,,,,,123019,001,2023-10-04_12h21.07.751,word priming experiment,2023.1.3,144.11672300581515,
walk,,0,41,41,16,,,,,60.93701520000468,60.93701520000468,4.7555555555555555,0.6098772000113968,,,,,,,,,,,,,123019,001,2023-10-04_12h21.07.751,word priming experiment,2023.1.3,144.11672300581515,
blade,,0,42,42,22,,,,,61.55886499999906,61.55886499999906,4.7555555555555555,0.5617386999947485,,,,,,,,,,,,,123019,001,2023-10-04_12h21.07.751,word priming experiment,2023.1.3,144.11672300581515,
bakery ,,0,43,43,13,,,,,62.13352990002022,62.13352990002022,4.7555555555555555,0.5323563999845646,,,,,,,,,,,,,123019,001,2023-10-04_12h21.07.751,word priming experiment,2023.1.3,144.11672300581515,
spectacles ,,0,44,44,8,,,,,62.67952630002401,62.67952630002401,4.7555555555555555,0.5488912000146229,,,,,,,,,,,,,123019,001,2023-10-04_12h21.07.751,word priming experiment,2023.1.3,144.11672300581515,
cushion,,0,45,45,3,,,,,63.23984880000353,63.23984880000353,4.7555555555555555,0.8448742000036873,,,,,,,,,,,,,123019,001,2023-10-04_12h21.07.751,word priming experiment,2023.1.3,144.11672300581515,
sheet,,0,46,46,33,,,,,64.09754420001991,64.09754420001991,4.7555555555555555,0.5547994999797083,,,,,,,,,,,,,123019,001,2023-10-04_12h21.07.751,word priming experiment,2023.1.3,144.11672300581515,
mitosis,,0,47,47,18,,,,,64.66463530002511,64.66463530002511,4.7555555555555555,0.5642145999881905,,,,,,,,,,,,,123019,001,2023-10-04_12h21.07.751,word priming experiment,2023.1.3,144.11672300581515,
sonnets,,0,48,48,10,,,,,65.24186200002441,65.24186200002441,4.7555555555555555,0.7012573000101838,,,,,,,,,,,,,123019,001,2023-10-04_12h21.07.751,word priming experiment,2023.1.3,144.11672300581515,
letter,,0,49,49,27,,,,,65.9551992000197,65.9551992000197,4.7555555555555555,0.6127233000006527,,,,,,,,,,,,,123019,001,2023-10-04_12h21.07.751,word priming experiment,2023.1.3,144.11672300581515,
,p_n_appl_,,,,,0,0,0,65,,,,,66.59552130001248,66.59552130001248,66.59552130001248,0.014732600015122443,pineapple,[0.15092592592592594],[-0.32314814814814813],[1],[0],[0],[6.964688599982765],['text_3'],123019,001,2023-10-04_12h21.07.751,word priming experiment,2023.1.3,144.11672300581515,
,b_t_l_,,,,,0,1,1,10,,,,,73.56151490000775,73.56151490000775,73.56151490000775,0.003500599996186793,bottle,[0.13518518518518519],[-0.31296296296296294],[1],[0],[0],[4.503430299984757],['text_3'],123019,001,2023-10-04_12h21.07.751,word priming experiment,2023.1.3,144.11672300581515,
,sw_p_,,,,,0,2,2,73,,,,,78.06696930000908,78.06696930000908,78.06696930000908,0.0029892000020481646,swipe,[0.13518518518518519],[-0.31296296296296294],[1],[0],[0],[9.847587099997327],['text_3'],123019,001,2023-10-04_12h21.07.751,word priming experiment,2023.1.3,144.11672300581515,
,S_ _g,,,,,0,3,3,35,,,,,87.91693810001016,87.91693810001016,87.91693810001016,0.002340500010177493,snag,[0.13518518518518519],[-0.31296296296296294],[1],[0],[0],[5.878922899981262],['text_3'],123019,001,2023-10-04_12h21.07.751,word priming experiment,2023.1.3,144.11672300581515,
,m_b_l_,,,,,0,4,4,90,,,,,93.80136300000595,93.80136300000595,93.80136300000595,0.003220099984901026,mobile,[0.13518518518518519],[-0.31296296296296294],[1],[0],[0],[3.277141099999426],['text_3'],123019,001,2023-10-04_12h21.07.751,word priming experiment,2023.1.3,144.11672300581515,
,l_m_,,,,,0,5,5,86,,,,,97.0816305000044,97.0816305000044,97.0816305000044,0.0029854000022169203,lime,[0.13518518518518519],[-0.31296296296296294],[1],[0],[0],[2.31316859999788],['text_3'],123019,001,2023-10-04_12h21.07.751,word priming experiment,2023.1.3,144.11672300581515,
,n_s_,,,,,0,6,6,72,,,,,99.39886280000792,99.39886280000792,99.39886280000792,0.002212799998233095,nose,[0.13518518518518519],[-0.31296296296296294],[1],[0],[0],[2.8819744999927934],['text_3'],123019,001,2023-10-04_12h21.07.751,word priming experiment,2023.1.3,144.11672300581515,
,p_l_c_,,,,,0,7,7,83,,,,,102.28473510002368,102.28473510002368,102.28473510002368,0.0033571999811101705,police,[0.13518518518518519],[-0.31296296296296294],[1],[0],[0],[2.409766299999319],['text_3'],123019,001,2023-10-04_12h21.07.751,word priming experiment,2023.1.3,144.11672300581515,
,_p_a_d_,,,,,0,8,8,7,,,,,104.69894260002184,104.69894260002184,104.69894260002184,0.003397599997697398,,[],[],[],[],[],[],[],123019,001,2023-10-04_12h21.07.751,word priming experiment,2023.1.3,144.11672300581515,
,p_n_appl_,,,,,0,9,9,55,,,,,114.70096220000414,114.70096220000414,114.70096220000414,0.005716200015740469,pinapple,[0.13518518518518519],[-0.31296296296296294],[1],[0],[0],[3.625247700023465],['text_3'],123019,001,2023-10-04_12h21.07.751,word priming experiment,2023.1.3,144.11672300581515,
,p_g__n,,,,,0,10,10,82,,,,,118.33060240000486,118.33060240000486,118.33060240000486,0.003423900023335591,penguin,[0.13518518518518519],[-0.31296296296296294],[1],[0],[0],[3.4712842000008095],['text_3'],123019,001,2023-10-04_12h21.07.751,word priming experiment,2023.1.3,144.11672300581515,
,p_r_fy,,,,,0,11,11,80,,,,,121.80559309999808,121.80559309999808,121.80559309999808,0.002342099993256852,purify,[0.13518518518518519],[-0.31296296296296294],[0],[0],[1],[4.381188700004714],['text_3'],123019,001,2023-10-04_12h21.07.751,word priming experiment,2023.1.3,144.11672300581515,
,V_ _w,,,,,0,12,12,41,,,,,126.19179490001989,126.19179490001989,126.19179490001989,0.004479299997910857,view,[0.13518518518518519],[-0.31296296296296294],[1],[0],[0],[2.388249299983727],['text_3'],123019,001,2023-10-04_12h21.07.751,word priming experiment,2023.1.3,144.11672300581515,
,tr_m,,,,,0,13,13,59,,,,,128.58359350002138,128.58359350002138,128.58359350002138,0.002256800013128668,term,[0.13518518518518519],[-0.31296296296296294],[1],[0],[0],[2.632573599985335],['text_3'],123019,001,2023-10-04_12h21.07.751,word priming experiment,2023.1.3,144.11672300581515,
,c_n_p_cu_us,,,,,0,14,14,45,,,,,131.2225781000161,131.2225781000161,131.2225781000161,0.004936399986036122,conspicuous,[0.13518518518518519],[-0.31296296296296294],[1],[0],[0],[4.745724000007613],['text_3'],123019,001,2023-10-04_12h21.07.751,word priming experiment,2023.1.3,144.11672300581515,
,l__ra_y,,,,,0,15,15,24,,,,,135.9739398000238,135.9739398000238,135.9739398000238,0.0032344000064767897,luxary,[0.13518518518518519],[-0.31296296296296294],[1],[0],[0],[3.9851629000040703],['text_3'],123019,001,2023-10-04_12h21.07.751,word priming experiment,2023.1.3,144.11672300581515,
,s_e_t,,,,,0,16,16,38,,,,,139.95993930002442,139.95993930002442,139.95993930002442,0.002264200011268258,,[],[],[],[],[],[],[],123019,001,2023-10-04_12h21.07.751,word priming experiment,2023.1.3,144.11672300581515,
,r_s_,,,,,0,17,17,60,,,,,149.96217300000717,149.96217300000717,149.96217300000717,0.004852400015806779,rose,[0.13518518518518519],[-0.31296296296296294],[1],[0],[0],[2.8069906000164337],['text_3'],123019,001,2023-10-04_12h21.07.751,word priming experiment,2023.1.3,144.11672300581515,
,wh_t_,,,,,0,18,18,57,,,,,152.77391060002265,152.77391060002265,152.77391060002265,0.003365099983057007,white,[0.13518518518518519],[-0.31296296296296294],[1],[0],[0],[2.6251468999835197],['text_3'],123019,001,2023-10-04_12h21.07.751,word priming experiment,2023.1.3,144.11672300581515,
,w_e_lc_a_r,,,,,0,19,19,36,,,,,155.4031427000009,155.4031427000009,155.4031427000009,0.0027176000003237277,wheelfchair,[0.06388888888888888],[-0.11018518518518519],[1],[0],[0],[8.626873500004876],[],123019,001,2023-10-04_12h21.07.751,word priming experiment,2023.1.3,144.11672300581515,
,cha_n,,,,,0,20,20,71,,,,,165.40489620002336,165.40489620002336,165.40489620002336,0.004724500002339482,chain,"[0.1175925925925926, 0.08333333333333333]","[-0.3435185185185185, -0.29907407407407405]","[1, 1]","[0, 0]","[0, 0]","[0.018485000007785857, 3.9660084000206552]",['text_3'],123019,001,2023-10-04_12h21.07.751,word priming experiment,2023.1.3,144.11672300581515,
,ch_c_la_e,,,,,0,21,21,11,,,,,169.37637810001615,169.37637810001615,169.37637810001615,0.003116799984127283,chocolate,[0.08333333333333333],[-0.29907407407407405],[1],[0],[0],[4.643385500006843],['text_3'],123019,001,2023-10-04_12h21.07.751,word priming experiment,2023.1.3,144.11672300581515,
,s_ad_,,,,,0,22,22,26,,,,,174.02188400001614,174.02188400001614,174.02188400001614,0.002343300002394244,spade,[0.08333333333333333],[-0.29907407407407405],[1],[0],[0],[4.755554900009884],['text_3'],123019,001,2023-10-04_12h21.07.751,word priming experiment,2023.1.3,144.11672300581515,
,__a_n_e,,,,,0,23,23,9,,,,,178.78156110001146,178.78156110001146,178.78156110001146,0.0027141000027768314,,[],[],[],[],[],[],[],123019,001,2023-10-04_12h21.07.751,word priming experiment,2023.1.3,144.11672300581515,
,s_e_tac_es,,,,,0,24,24,13,,,,,188.78333800000837,188.78333800000837,188.78333800000837,0.005173200013814494,spectacles,[0.08333333333333333],[-0.29907407407407405],[1],[0],[0],[4.402418400015449],['text_3'],123019,001,2023-10-04_12h21.07.751,word priming experiment,2023.1.3,144.11672300581515,
,bu_gu_d_,,,,,0,25,25,74,,,,,193.18953260002309,193.18953260002309,193.18953260002309,0.0022594000038225204,,[],[],[],[],[],[],[],123019,001,2023-10-04_12h21.07.751,word priming experiment,2023.1.3,144.11672300581515,
,w_nd_w,,,,,0,26,26,39,,,,,203.19249080002191,203.19249080002191,203.19249080002191,0.005190900003071874,window,[0.08333333333333333],[-0.29907407407407405],[1],[0],[0],[2.7791542000195477],['text_3'],123019,001,2023-10-04_12h21.07.751,word priming experiment,2023.1.3,144.11672300581515,
,_l_ctr_c_ty,,,,,0,27,27,28,,,,,205.97532360002515,205.97532360002515,205.97532360002515,0.002754500019364059,electricity,[0.08333333333333333],[-0.29907407407407405],[1],[0],[0],[6.57942809999804],['text_3'],123019,001,2023-10-04_12h21.07.751,word priming experiment,2023.1.3,144.11672300581515,
,_c__r,,,,,0,28,28,14,,,,,212.55823580001015,212.55823580001015,212.55823580001015,0.002419200027361512,,[],[],[],[],[],[],[],123019,001,2023-10-04_12h21.07.751,word priming experiment,2023.1.3,144.11672300581515,
,p_c_,,,,,0,29,29,8,,,,,222.56103310000617,222.56103310000617,222.56103310000617,0.005467600014526397,pice,[0.08333333333333333],[-0.29907407407407405],[1],[0],[0],[4.111507099994924],['text_3'],123019,001,2023-10-04_12h21.07.751,word priming experiment,2023.1.3,144.11672300581515,
,l_ _f,,,,,0,30,30,53,,,,,226.67636670000502,226.67636670000502,226.67636670000502,0.0024560999881941825,leaf,[0.08333333333333333],[-0.29907407407407405],[1],[0],[0],[2.0846783999877516],['text_3'],123019,001,2023-10-04_12h21.07.751,word priming experiment,2023.1.3,144.11672300581515,
,gh_st,,,,,0,31,31,93,,,,,228.76394400000572,228.76394400000572,228.76394400000572,0.0021994999842718244,ghost,[0.08333333333333333],[-0.29907407407407405],[1],[0],[0],[2.348251799994614],['text_3'],123019,001,2023-10-04_12h21.07.751,word priming experiment,2023.1.3,144.11672300581515,
,s_ad_w,,,,,0,32,32,75,,,,,231.11621140001807,231.11621140001807,231.11621140001807,0.002287099981913343,shadow,[0.08333333333333333],[-0.29907407407407405],[1],[0],[0],[2.5560302000085358],['text_3'],123019,001,2023-10-04_12h21.07.751,word priming experiment,2023.1.3,144.11672300581515,
,cl_s_,,,,,0,33,33,68,,,,,233.67480100001558,233.67480100001558,233.67480100001558,0.002209199999924749,close,[0.08333333333333333],[-0.29907407407407405],[1],[0],[0],[3.5070452999789268],['text_3'],123019,001,2023-10-04_12h21.07.751,word priming experiment,2023.1.3,144.11672300581515,
,ba_er_,,,,,0,34,34,18,,,,,237.1855773999996,237.1855773999996,237.1855773999996,0.002379599987762049,bakery,[0.08333333333333333],[-0.29907407407407405],[1],[0],[0],[6.26777169998968],['text_3'],123019,001,2023-10-04_12h21.07.751,word priming experiment,2023.1.3,144.11672300581515,
,Gr_ _k,,,,,0,35,35,89,,,,,243.4617597000033,243.4617597000033,243.4617597000033,0.005634000001009554,greek,[0.08333333333333333],[-0.29907407407407405],[1],[0],[0],[3.0943410000181757],['text_3'],123019,001,2023-10-04_12h21.07.751,word priming experiment,2023.1.3,144.11672300581515,
,s_c_r_ _y,,,,,0,36,36,33,,,,,246.55839190000552,246.55839190000552,246.55839190000552,0.0026892999885603786,,[],[],[],[],[],[],[],123019,001,2023-10-04_12h21.07.751,word priming experiment,2023.1.3,144.11672300581515,
,b_g,,,,,0,37,37,17,,,,,256.5602190000063,256.5602190000063,256.5602190000063,0.004732500005047768,big,[0.08333333333333333],[-0.29907407407407405],[1],[0],[0],[3.195794900006149],['text_3'],123019,001,2023-10-04_12h21.07.751,word priming experiment,2023.1.3,144.11672300581515,
,s_v_n,,,,,0,38,38,94,,,,,259.75924230000237,259.75924230000237,259.75924230000237,0.0023410999856423587,seven,[0.08333333333333333],[-0.29907407407407405],[1],[0],[0],[2.195652299997164],['text_3'],123019,001,2023-10-04_12h21.07.751,word priming experiment,2023.1.3,144.11672300581515,
,bo_t_e,,,,,0,39,39,5,,,,,261.95793770000455,261.95793770000455,261.95793770000455,0.0022282999998424202,bottle,[0.08333333333333333],[-0.29907407407407405],[1],[0],[0],[7.711115599988261],['text_3'],123019,001,2023-10-04_12h21.07.751,word priming experiment,2023.1.3,144.11672300581515,
,l_t_er,,,,,0,40,40,32,,,,,269.6727554000099,269.6727554000099,269.6727554000099,0.002379299985477701,litter,[0.08333333333333333],[-0.29907407407407405],[1],[0],[0],[6.718645899993135],['text_3'],123019,001,2023-10-04_12h21.07.751,word priming experiment,2023.1.3,144.11672300581515,
,l_b_rty,,,,,0,41,41,76,,,,,276.3957667000068,276.3957667000068,276.3957667000068,0.0027119999867863953,liberty,[0.08333333333333333],[-0.29907407407407405],[1],[0],[0],[3.9157101000018883],['text_3'],123019,001,2023-10-04_12h21.07.751,word priming experiment,2023.1.3,144.11672300581515,
,c_e_c_nt,,,,,0,42,42,25,,,,,280.31537430000026,280.31537430000026,280.31537430000026,0.0025273000064771622,srescent,[0.08333333333333333],[-0.29907407407407405],[1],[0],[0],[4.214202999981353],['text_3'],123019,001,2023-10-04_12h21.07.751,word priming experiment,2023.1.3,144.11672300581515,
,dr_u_h_,,,,,0,43,43,12,,,,,284.53209700001753,284.53209700001753,284.53209700001753,0.002309100003913045,,[],[],[],[],[],[],[],123019,001,2023-10-04_12h21.07.751,word priming experiment,2023.1.3,144.11672300581515,
,bl_d_,,,,,0,44,44,27,,,,,294.53532200001064,294.53532200001064,294.53532200001064,0.005123300012201071,blade,[0.08333333333333333],[-0.29907407407407405],[1],[0],[0],[3.1334085000271443],['text_3'],123019,001,2023-10-04_12h21.07.751,word priming experiment,2023.1.3,144.11672300581515,
,s_rv_v_l,,,,,0,45,45,49,,,,,297.6728589000122,297.6728589000122,297.6728589000122,0.0028082999924663454,survival,[0.08333333333333333],[-0.29907407407407405],[1],[0],[0],[3.5754691000038292],['text_3'],123019,001,2023-10-04_12h21.07.751,word priming experiment,2023.1.3,144.11672300581515,
,__nv_lesc_nt ,,,,,0,46,46,34,,,,,301.25158560002455,301.25158560002455,301.25158560002455,0.002545799972722307,convalescent,[0.08333333333333333],[-0.29907407407407405],[0],[0],[1],[6.531210599991027],['text_3'],123019,001,2023-10-04_12h21.07.751,word priming experiment,2023.1.3,144.11672300581515,
,_p_n,,,,,0,47,47,67,,,,,307.7861521000159,307.7861521000159,307.7861521000159,0.0020521999977063388,open,[0.08333333333333333],[-0.29907407407407405],[1],[0],[0],[3.639019099995494],['text_3'],123019,001,2023-10-04_12h21.07.751,word priming experiment,2023.1.3,144.11672300581515,
,s_n_e_s,,,,,0,48,48,15,,,,,311.4287375000131,311.4287375000131,311.4287375000131,0.0025307000032626092,sonnets,[],[],[],[],[],[],[],123019,001,2023-10-04_12h21.07.751,word priming experiment,2023.1.3,144.11672300581515,
,p_v_t,,,,,0,49,49,42,,,,,321.4307790000166,321.4307790000166,321.4307790000166,0.004954000003635883,pivot,[0.08333333333333333],[-0.29907407407407405],[1],[0],[0],[2.9873850000149105],['text_3'],123019,001,2023-10-04_12h21.07.751,word priming experiment,2023.1.3,144.11672300581515,
,_e_p,,,,,0,50,50,40,,,,,324.4217912000022,324.4217912000022,324.4217912000022,0.0022783999738749117,,[0.08333333333333333],[-0.29907407407407405],[1],[0],[0],[7.620536600006744],['text_3'],123019,001,2023-10-04_12h21.07.751,word priming experiment,2023.1.3,144.11672300581515,
,c_nv_s,,,,,0,51,51,99,,,,,332.0454241000116,332.0454241000116,332.0454241000116,0.00223419998656027,canvas,[0.08333333333333333],[-0.29907407407407405],[1],[0],[0],[3.993126899993513],['text_3'],123019,001,2023-10-04_12h21.07.751,word priming experiment,2023.1.3,144.11672300581515,
,a_n_s__,,,,,0,52,52,52,,,,,336.043911100016,336.043911100016,336.043911100016,0.0036554000107571483,,[0.08333333333333333],[-0.29907407407407405],[1],[0],[0],[9.151854700001422],['text_3'],123019,001,2023-10-04_12h21.07.751,word priming experiment,2023.1.3,144.11672300581515,
,_a_e,,,,,0,53,53,0,,,,,345.1984120999987,345.1984120999987,345.1984120999987,0.0023136000090744346,vase,[0.08333333333333333],[-0.29907407407407405],[1],[0],[0],[3.888661500008311],['text_3'],123019,001,2023-10-04_12h21.07.751,word priming experiment,2023.1.3,144.11672300581515,
,d_nut,,,,,0,54,54,85,,,,,349.0905473000021,349.0905473000021,349.0905473000021,0.0022122000227682292,donut,[0.08333333333333333],[-0.29907407407407405],[1],[0],[0],[2.4803544000023976],['text_3'],123019,001,2023-10-04_12h21.07.751,word priming experiment,2023.1.3,144.11672300581515,
,b_ _k,,,,,0,55,55,4,,,,,351.57451620002394,351.57451620002394,351.57451620002394,0.0023366000095847994,book,[0.08333333333333333],[-0.29907407407407405],[1],[0],[0],[2.764531900000293],['text_3'],123019,001,2023-10-04_12h21.07.751,word priming experiment,2023.1.3,144.11672300581515,
,l_ly,,,,,0,56,56,70,,,,,354.3421893000195,354.3421893000195,354.3421893000195,0.0021022000000812113,lily,[0.08333333333333333],[-0.29907407407407405],[1],[0],[0],[3.1189758999971673],['text_3'],123019,001,2023-10-04_12h21.07.751,word priming experiment,2023.1.3,144.11672300581515,
,_r_wn,,,,,0,57,57,95,,,,,357.4672561000043,357.4672561000043,357.4672561000043,0.003500699996948242,prawn,[0.08333333333333333],[-0.29907407407407405],[1],[0],[0],[2.991811100015184],['text_3'],123019,001,2023-10-04_12h21.07.751,word priming experiment,2023.1.3,144.11672300581515,
,m_t_s_s,,,,,0,58,58,23,,,,,360.4613685000222,360.4613685000222,360.4613685000222,0.00252609999733977,mitosis,[0.08333333333333333],[-0.29907407407407405],[1],[0],[0],[2.834325900010299],['text_3'],123019,001,2023-10-04_12h21.07.751,word priming experiment,2023.1.3,144.11672300581515,
,w_ _ k,,,,,0,59,59,21,,,,,363.29964890002157,363.29964890002157,363.29964890002157,0.0024674999876879156,week,[0.08333333333333333],[-0.29907407407407405],[1],[0],[0],[2.174691399995936],['text_3'],123019,001,2023-10-04_12h21.07.751,word priming experiment,2023.1.3,144.11672300581515,
,c_m_r_,,,,,0,60,60,6,,,,,365.4775361000211,365.4775361000211,365.4775361000211,0.002654399984749034,camera,[0.08333333333333333],[-0.29907407407407405],[1],[0],[0],[2.5973003999970388],['text_3'],123019,001,2023-10-04_12h21.07.751,word priming experiment,2023.1.3,144.11672300581515,
,sh_rt,,,,,0,61,61,54,,,,,368.0782406000071,368.0782406000071,368.0782406000071,0.002308499999344349,shirt,[0.08333333333333333],[-0.29907407407407405],[1],[0],[0],[2.528491099976236],['text_3'],123019,001,2023-10-04_12h21.07.751,word priming experiment,2023.1.3,144.11672300581515,
,l_d_er,,,,,0,62,62,98,,,,,370.61173210002016,370.61173210002016,370.61173210002016,0.0025907999952323735,ladder,[0.08333333333333333],[-0.29907407407407405],[1],[0],[0],[2.236666300013894],['text_3'],123019,001,2023-10-04_12h21.07.751,word priming experiment,2023.1.3,144.11672300581515,
,cr_w,,,,,0,63,63,81,,,,,372.8518354000116,372.8518354000116,372.8518354000116,0.0026000999787356704,croew,[0.08333333333333333],[-0.29907407407407405],[1],[0],[0],[2.4311774999951012],['text_3'],123019,001,2023-10-04_12h21.07.751,word priming experiment,2023.1.3,144.11672300581515,
,cl_s_r_ _m,,,,,0,64,64,78,,,,,375.2860890000011,375.2860890000011,375.2860890000011,0.0026002000086009502,classroom,[0.08333333333333333],[-0.29907407407407405],[1],[0],[0],[4.089373899972998],['text_3'],123019,001,2023-10-04_12h21.07.751,word priming experiment,2023.1.3,144.11672300581515,
,F_ _ma_,,,,,0,65,65,37,,,,,379.38086390000535,379.38086390000535,379.38086390000535,0.0039966000185813755,format,[0.08333333333333333],[-0.29907407407407405],[1],[0],[0],[3.9007817000092473],['text_3'],123019,001,2023-10-04_12h21.07.751,word priming experiment,2023.1.3,144.11672300581515,
,b_ar_,,,,,0,66,66,96,,,,,383.2850737000117,383.2850737000117,383.2850737000117,0.002493100007995963,,[],[],[],[],[],[],[],123019,001,2023-10-04_12h21.07.751,word priming experiment,2023.1.3,144.11672300581515,
,p_a_n_,,,,,0,67,67,3,,,,,393.28657260001637,393.28657260001637,393.28657260001637,0.004422199999680743,,[],[],[],[],[],[],[],123019,001,2023-10-04_12h21.07.751,word priming experiment,2023.1.3,144.11672300581515,
,p_ _e,,,,,0,68,68,31,,,,,403.29152850000537,403.29152850000537,403.29152850000537,0.008426500018686056,,[0.08333333333333333],[-0.29907407407407405],[1],[0],[0],[0.600747099990258],['text_3'],123019,001,2023-10-04_12h21.07.751,word priming experiment,2023.1.3,144.11672300581515,
,h_m_er,,,,,0,69,69,51,,,,,403.89562580001075,403.89562580001075,403.89562580001075,0.0025759999989531934,hammer,[0.08333333333333333],[-0.29907407407407405],[1],[0],[0],[2.6256419999990612],['text_3'],123019,001,2023-10-04_12h21.07.751,word priming experiment,2023.1.3,144.11672300581515,
,s_nl_g_t,,,,,0,70,70,48,,,,,406.524885300023,406.524885300023,406.524885300023,0.002330999996047467,sunlight,[0.08333333333333333],[-0.29907407407407405],[1],[0],[0],[8.529399699997157],['text_3'],123019,001,2023-10-04_12h21.07.751,word priming experiment,2023.1.3,144.11672300581515,
,f_l_,,,,,0,71,71,44,,,,,415.0573822000006,415.0573822000006,415.0573822000006,0.0023363999789580703,file,[0.08333333333333333],[-0.29907407407407405],[1],[0],[0],[6.698062999988906],['text_3'],123019,001,2023-10-04_12h21.07.751,word priming experiment,2023.1.3,144.11672300581515,
,ap_l_cat__n,,,,,0,72,72,91,,,,,421.76117990000057,421.76117990000057,421.76117990000057,0.003960800007916987,application,[0.08333333333333333],[-0.29907407407407405],[1],[0],[0],[4.538669300003676],['text_3'],123019,001,2023-10-04_12h21.07.751,word priming experiment,2023.1.3,144.11672300581515,
,Ch_ _r,,,,,0,73,73,97,,,,,426.3030867000052,426.3030867000052,426.3030867000052,0.002442700002575293,chair,[0.08333333333333333],[-0.29907407407407405],[1],[0],[0],[2.7084923000074923],['text_3'],123019,001,2023-10-04_12h21.07.751,word priming experiment,2023.1.3,144.11672300581515,
,_a_nt,,,,,0,74,74,19,,,,,429.0147792000207,429.0147792000207,429.0147792000207,0.0022492999851237983,,[],[],[],[],[],[],[],123019,001,2023-10-04_12h21.07.751,word priming experiment,2023.1.3,144.11672300581515,
,m_th,,,,,0,75,75,87,,,,,439.0173632000224,439.0173632000224,439.0173632000224,0.004567199997836724,meth,[0.08333333333333333],[-0.29907407407407405],[1],[0],[0],[4.562746200012043],['text_3'],123019,001,2023-10-04_12h21.07.751,word priming experiment,2023.1.3,144.11672300581515,
,c_mp_a_nt,,,,,0,76,76,84,,,,,443.58368130002054,443.58368130002054,443.58368130002054,0.002399899996817112,complaint,[0.08333333333333333],[-0.29907407407407405],[1],[0],[0],[4.158734700002242],['text_3'],123019,001,2023-10-04_12h21.07.751,word priming experiment,2023.1.3,144.11672300581515,
,_a_d_l,,,,,0,77,77,64,,,,,447.74507530001574,447.74507530001574,447.74507530001574,0.002285899972775951,,[],[],[],[],[],[],[],123019,001,2023-10-04_12h21.07.751,word priming experiment,2023.1.3,144.11672300581515,
,p_ll_r,,,,,0,78,78,88,,,,,457.7502701000194,457.7502701000194,457.7502701000194,0.005885099992156029,pillar,[0.08333333333333333],[-0.29907407407407405],[1],[0],[0],[2.910322300012922],['text_3'],123019,001,2023-10-04_12h21.07.751,word priming experiment,2023.1.3,144.11672300581515,
,pr_nt,,,,,0,79,79,61,,,,,460.6631787000224,460.6631787000224,460.6631787000224,0.0024769000010564923,print,[0.08333333333333333],[-0.29907407407407405],[1],[0],[0],[2.3339770000020508],['text_3'],123019,001,2023-10-04_12h21.07.751,word priming experiment,2023.1.3,144.11672300581515,
,_h_nd_r,,,,,0,80,80,30,,,,,463.00139469999704,463.00139469999704,463.00139469999704,0.002939899975899607,,[],[],[],[],[],[],[],123019,001,2023-10-04_12h21.07.751,word priming experiment,2023.1.3,144.11672300581515,
,Pa_ _n_,,,,,0,81,81,47,,,,,473.0042628000083,473.0042628000083,473.0042628000083,0.006284599978243932,,[],[],[],[],[],[],[],123019,001,2023-10-04_12h21.07.751,word priming experiment,2023.1.3,144.11672300581515,
,w_t_r,,,,,0,82,82,79,,,,,483.0065155000193,483.0065155000193,483.0065155000193,0.008480499993311241,water,[0.08333333333333333],[-0.29907407407407405],[1],[0],[0],[3.258178099989891],['text_3'],123019,001,2023-10-04_12h21.07.751,word priming experiment,2023.1.3,144.11672300581515,
,la_g_ag_,,,,,0,83,83,62,,,,,486.26881130001857,486.26881130001857,486.26881130001857,0.0026672000240068883,language,[0.08333333333333333],[-0.29907407407407405],[1],[0],[0],[4.241767500003334],['text_3'],123019,001,2023-10-04_12h21.07.751,word priming experiment,2023.1.3,144.11672300581515,
,c_sh_ on,,,,,0,84,84,2,,,,,490.51519430000917,490.51519430000917,490.51519430000917,0.0024759999942034483,cushion,[0.08333333333333333],[-0.29907407407407405],[1],[0],[0],[2.9307872999925166],['text_3'],123019,001,2023-10-04_12h21.07.751,word priming experiment,2023.1.3,144.11672300581515,
,un_ve_s_ _y,,,,,0,85,85,20,,,,,493.44902770000044,493.44902770000044,493.44902770000044,0.0028725000156555325,university,[0.08333333333333333],[-0.29907407407407405],[1],[0],[0],[7.987587599986],['text_3'],123019,001,2023-10-04_12h21.07.751,word priming experiment,2023.1.3,144.11672300581515,
,r_ng,,,,,0,86,86,63,,,,,501.4398541999981,501.4398541999981,501.4398541999981,0.0021200000192038715,ring,[0.08333333333333333],[-0.29907407407407405],[1],[0],[0],[5.012861299997894],['text_3'],123019,001,2023-10-04_12h21.07.751,word priming experiment,2023.1.3,144.11672300581515,
,s_oes,,,,,0,87,87,56,,,,,506.4563593000057,506.4563593000057,506.4563593000057,0.002398099983111024,shoes,[0.08333333333333333],[-0.29907407407407405],[1],[0],[0],[2.2370825999823865],['text_3'],123019,001,2023-10-04_12h21.07.751,word priming experiment,2023.1.3,144.11672300581515,
,l__gu_n_,,,,,0,88,88,29,,,,,508.69628670002567,508.69628670002567,508.69628670002567,0.002373700001044199,linguini,[0.08333333333333333],[-0.29907407407407405],[1],[0],[0],[3.777143999992404],['text_3'],123019,001,2023-10-04_12h21.07.751,word priming experiment,2023.1.3,144.11672300581515,
,_es_t_p,,,,,0,89,89,16,,,,,512.4788317000202,512.4788317000202,512.4788317000202,0.0032467999844811857,desktop,[0.08333333333333333],[-0.29907407407407405],[1],[0],[0],[8.889475700008916],['text_3'],123019,001,2023-10-04_12h21.07.751,word priming experiment,2023.1.3,144.11672300581515,
,_ar_h_n_s,,,,,0,90,90,58,,,,,521.372250800021,521.372250800021,521.372250800021,0.002852400008123368,,[],[],[],[],[],[],[],123019,001,2023-10-04_12h21.07.751,word priming experiment,2023.1.3,144.11672300581515,
,br_ _m_t_ck,,,,,0,91,91,77,,,,,531.3734530000074,531.3734530000074,531.3734530000074,0.00470270001096651,broomstick,[0.08333333333333333],[-0.29907407407407405],[1],[0],[0],[5.574543199996697],['text_3'],123019,001,2023-10-04_12h21.07.751,word priming experiment,2023.1.3,144.11672300581515,
,_c_ss_r,,,,,0,92,92,43,,,,,536.9517402000201,536.9517402000201,536.9517402000201,0.0024665000091772527,scissor,[0.08333333333333333],[-0.29907407407407405],[1],[0],[0],[2.979594000003999],['text_3'],123019,001,2023-10-04_12h21.07.751,word priming experiment,2023.1.3,144.11672300581515,
,f_r_,,,,,0,93,93,92,,,,,539.9343402000086,539.9343402000086,539.9343402000086,0.0021641000057570636,fire,[0.08333333333333333],[-0.29907407407407405],[1],[0],[0],[3.7638136000023223],['text_3'],123019,001,2023-10-04_12h21.07.751,word priming experiment,2023.1.3,144.11672300581515,
,p_r_e,,,,,0,94,94,22,,,,,543.7020429999975,543.7020429999975,543.7020429999975,0.0023056000063661486,,[],[],[],[],[],[],[],123019,001,2023-10-04_12h21.07.751,word priming experiment,2023.1.3,144.11672300581515,
,ch_ss,,,,,0,95,95,66,,,,,553.7042064999987,553.7042064999987,553.7042064999987,0.004748300008941442,chess,[0.08333333333333333],[-0.29907407407407405],[1],[0],[0],[2.578178999974625],['text_3'],123019,001,2023-10-04_12h21.07.751,word priming experiment,2023.1.3,144.11672300581515,
,st_l_,,,,,0,96,96,46,,,,,556.2858705000253,556.2858705000253,556.2858705000253,0.002203300013206899,stole,[0.08333333333333333],[-0.29907407407407405],[1],[0],[0],[3.569353200000478],['text_3'],123019,001,2023-10-04_12h21.07.751,word priming experiment,2023.1.3,144.11672300581515,
,t_g_r,,,,,0,97,97,1,,,,,559.8592249000212,559.8592249000212,559.8592249000212,0.0025650000025052577,tiger,[0.08333333333333333],[-0.29907407407407405],[1],[0],[0],[1.9592355000204407],['text_3'],123019,001,2023-10-04_12h21.07.751,word priming experiment,2023.1.3,144.11672300581515,
,w_ _e,,,,,0,98,98,50,,,,,561.8219987000048,561.8219987000048,561.8219987000048,0.0023423999955412,wime,[0.08333333333333333],[-0.29907407407407405],[1],[0],[0],[9.097931099997368],['text_3'],123019,001,2023-10-04_12h21.07.751,word priming experiment,2023.1.3,144.11672300581515,
,f_rst,,,,,0,99,99,69,,,,,570.9232353999978,570.9232353999978,570.9232353999978,0.0021951000089757144,first,[0.08333333333333333],[-0.29907407407407405],[1],[0],[0],[3.64615089999279],['text_3'],123019,001,2023-10-04_12h21.07.751,word priming experiment,2023.1.3,144.11672300581515,
