study_words,test_words,trials.thisRepN,trials.thisTrialN,trials.thisN,trials.thisIndex,trials_2.thisRepN,trials_2.thisTrialN,trials_2.thisN,trials_2.thisIndex,text.started,slider.started,slider.response,slider.rt,text_2.started,textbox.started,text_3.started,mouse.started,textbox.text,mouse.x,mouse.y,mouse.leftButton,mouse.midButton,mouse.rightButton,mouse.time,mouse.clicked_name,participant,session,date,expName,psychopyVersion,frameRate,
view,,0,0,0,36,,,,,17.12681529999827,17.12681529999827,5,2.3542078000027686,,,,,,,,,,,,,104,001,2023-10-05_16h18.52.976,word priming experiment,2023.1.3,145.12397940509823,
hamper,,0,1,1,46,,,,,19.47042510000756,19.47042510000756,5,0.9700224999978673,,,,,,,,,,,,,104,001,2023-10-05_16h18.52.976,word priming experiment,2023.1.3,145.12397940509823,
cushion,,0,2,2,3,,,,,20.456586700005573,20.456586700005573,5,0.9037545000028331,,,,,,,,,,,,,104,001,2023-10-05_16h18.52.976,word priming experiment,2023.1.3,145.12397940509823,
shade,,0,3,3,21,,,,,21.373862699998426,21.373862699998426,5,1.0477584000036586,,,,,,,,,,,,,104,001,2023-10-05_16h18.52.976,word priming experiment,2023.1.3,145.12397940509823,
walk,,0,4,4,16,,,,,22.433924099997967,22.433924099997967,5,1.1512676999991527,,,,,,,,,,,,,104,001,2023-10-05_16h18.52.976,word priming experiment,2023.1.3,145.12397940509823,
format,,0,5,5,32,,,,,23.59817940001085,23.59817940001085,5,1.016251299995929,,,,,,,,,,,,,104,001,2023-10-05_16h18.52.976,word priming experiment,2023.1.3,145.12397940509823,
bakery ,,0,6,6,13,,,,,24.62751040000876,24.62751040000876,5,1.1943923999933759,,,,,,,,,,,,,104,001,2023-10-05_16h18.52.976,word priming experiment,2023.1.3,145.12397940509823,
book,,0,7,7,2,,,,,25.833932699999423,25.833932699999423,5,1.286123800004134,,,,,,,,,,,,,104,001,2023-10-05_16h18.52.976,word priming experiment,2023.1.3,145.12397940509823,
paint,,0,8,8,14,,,,,27.13218610000331,27.13218610000331,5,1.4533551999920746,,,,,,,,,,,,,104,001,2023-10-05_16h18.52.976,word priming experiment,2023.1.3,145.12397940509823,
page,,0,9,9,26,,,,,28.598002200000337,28.598002200000337,5,1.4006833000021288,,,,,,,,,,,,,104,001,2023-10-05_16h18.52.976,word priming experiment,2023.1.3,145.12397940509823,
nose,,0,10,10,49,,,,,30.009978500005673,30.009978500005673,5,1.465121100001852,,,,,,,,,,,,,104,001,2023-10-05_16h18.52.976,word priming experiment,2023.1.3,145.12397940509823,
convalescent ,,0,11,11,29,,,,,31.486312000008184,31.486312000008184,5,2.113747900002636,,,,,,,,,,,,,104,001,2023-10-05_16h18.52.976,word priming experiment,2023.1.3,145.12397940509823,
library,,0,12,12,19,,,,,33.612039400002686,33.612039400002686,5,1.178709700005129,,,,,,,,,,,,,104,001,2023-10-05_16h18.52.976,word priming experiment,2023.1.3,145.12397940509823,
sonnets,,0,13,13,10,,,,,34.80253120000998,34.80253120000998,5,1.1336774000083096,,,,,,,,,,,,,104,001,2023-10-05_16h18.52.976,word priming experiment,2023.1.3,145.12397940509823,
linguini ,,0,14,14,24,,,,,35.94738850000431,35.94738850000431,5,1.0703440999932354,,,,,,,,,,,,,104,001,2023-10-05_16h18.52.976,word priming experiment,2023.1.3,145.12397940509823,
blade,,0,15,15,22,,,,,37.02874690000317,37.02874690000317,5,1.0485367000073893,,,,,,,,,,,,,104,001,2023-10-05_16h18.52.976,word priming experiment,2023.1.3,145.12397940509823,
survival,,0,16,16,44,,,,,38.08779360000335,38.08779360000335,5,1.1590303999983007,,,,,,,,,,,,,104,001,2023-10-05_16h18.52.976,word priming experiment,2023.1.3,145.12397940509823,
spectacles ,,0,17,17,8,,,,,39.25877130001027,39.25877130001027,5,1.3234820000070613,,,,,,,,,,,,,104,001,2023-10-05_16h18.52.976,word priming experiment,2023.1.3,145.12397940509823,
window,,0,18,18,34,,,,,40.59325760000502,40.59325760000502,5,1.6982312999898568,,,,,,,,,,,,,104,001,2023-10-05_16h18.52.976,word priming experiment,2023.1.3,145.12397940509823,
panini ,,0,19,19,42,,,,,42.3019776000001,42.3019776000001,5,0.9312781000044197,,,,,,,,,,,,,104,001,2023-10-05_16h18.52.976,word priming experiment,2023.1.3,145.12397940509823,
mitosis,,0,20,20,18,,,,,43.24461130000418,43.24461130000418,5,0.9190835999906994,,,,,,,,,,,,,104,001,2023-10-05_16h18.52.976,word priming experiment,2023.1.3,145.12397940509823,
thunder,,0,21,21,25,,,,,44.175356000007014,44.175356000007014,5,0.6833651000051759,,,,,,,,,,,,,104,001,2023-10-05_16h18.52.976,word priming experiment,2023.1.3,145.12397940509823,
help,,0,22,22,35,,,,,44.869801300010295,44.869801300010295,5,0.883426899992628,,,,,,,,,,,,,104,001,2023-10-05_16h18.52.976,word priming experiment,2023.1.3,145.12397940509823,
security,,0,23,23,28,,,,,45.76400640000065,45.76400640000065,5,0.9031063000002177,,,,,,,,,,,,,104,001,2023-10-05_16h18.52.976,word priming experiment,2023.1.3,145.12397940509823,
desktop,,0,24,24,11,,,,,46.67913080001017,46.67913080001017,5,0.8603904999908991,,,,,,,,,,,,,104,001,2023-10-05_16h18.52.976,word priming experiment,2023.1.3,145.12397940509823,
Sing,,0,25,25,30,,,,,47.55044920000364,47.55044920000364,5,1.080843299991102,,,,,,,,,,,,,104,001,2023-10-05_16h18.52.976,word priming experiment,2023.1.3,145.12397940509823,
sheet,,0,26,26,33,,,,,48.64312280000013,48.64312280000013,5,1.1292356999911135,,,,,,,,,,,,,104,001,2023-10-05_16h18.52.976,word priming experiment,2023.1.3,145.12397940509823,
draught,,0,27,27,7,,,,,49.784596299999976,49.784596299999976,5,1.1204160999914166,,,,,,,,,,,,,104,001,2023-10-05_16h18.52.976,word priming experiment,2023.1.3,145.12397940509823,
purse,,0,28,28,17,,,,,50.915285000010044,50.915285000010044,5,1.264480400001048,,,,,,,,,,,,,104,001,2023-10-05_16h18.52.976,word priming experiment,2023.1.3,145.12397940509823,
wheelchair,,0,29,29,31,,,,,52.19088809999812,52.19088809999812,5,1.1345704999985173,,,,,,,,,,,,,104,001,2023-10-05_16h18.52.976,word priming experiment,2023.1.3,145.12397940509823,
university,,0,30,30,15,,,,,53.33667129999958,53.33667129999958,5,0.8574841000081506,,,,,,,,,,,,,104,001,2023-10-05_16h18.52.976,word priming experiment,2023.1.3,145.12397940509823,
vase,,0,31,31,0,,,,,54.20485999999801,54.20485999999801,5,1.154483899998013,,,,,,,,,,,,,104,001,2023-10-05_16h18.52.976,word priming experiment,2023.1.3,145.12397940509823,
wire,,0,32,32,45,,,,,55.37034200000926,55.37034200000926,5,1.0833726999990176,,,,,,,,,,,,,104,001,2023-10-05_16h18.52.976,word priming experiment,2023.1.3,145.12397940509823,
tiger,,0,33,33,1,,,,,56.46473530000367,56.46473530000367,5,1.2591371999878902,,,,,,,,,,,,,104,001,2023-10-05_16h18.52.976,word priming experiment,2023.1.3,145.12397940509823,
scissor,,0,34,34,38,,,,,57.7343741000077,57.7343741000077,5,0.6604948000021977,,,,,,,,,,,,,104,001,2023-10-05_16h18.52.976,word priming experiment,2023.1.3,145.12397940509823,
amnesia,,0,35,35,47,,,,,58.406335699997726,58.406335699997726,5,1.211498799995752,,,,,,,,,,,,,104,001,2023-10-05_16h18.52.976,word priming experiment,2023.1.3,145.12397940509823,
bag,,0,36,36,12,,,,,59.62808249999944,59.62808249999944,5,1.0443097000097623,,,,,,,,,,,,,104,001,2023-10-05_16h18.52.976,word priming experiment,2023.1.3,145.12397940509823,
chocolate,,0,37,37,6,,,,,60.6842328000057,60.6842328000057,5,0.9624812999973074,,,,,,,,,,,,,104,001,2023-10-05_16h18.52.976,word priming experiment,2023.1.3,145.12397940509823,
letter,,0,38,38,27,,,,,61.65778340000543,61.65778340000543,5,1.1646656000084477,,,,,,,,,,,,,104,001,2023-10-05_16h18.52.976,word priming experiment,2023.1.3,145.12397940509823,
file,,0,39,39,39,,,,,62.83324639999773,62.83324639999773,5,0.6774718999949982,,,,,,,,,,,,,104,001,2023-10-05_16h18.52.976,word priming experiment,2023.1.3,145.12397940509823,
actor,,0,40,40,9,,,,,63.522088900004746,63.522088900004746,5,1.0957523999968544,,,,,,,,,,,,,104,001,2023-10-05_16h18.52.976,word priming experiment,2023.1.3,145.12397940509823,
style,,0,41,41,41,,,,,64.62900000000081,64.62900000000081,5,0.7826670000067679,,,,,,,,,,,,,104,001,2023-10-05_16h18.52.976,word priming experiment,2023.1.3,145.12397940509823,
sunlight,,0,42,42,43,,,,,65.42241240000294,65.42241240000294,5,0.8825576999952318,,,,,,,,,,,,,104,001,2023-10-05_16h18.52.976,word priming experiment,2023.1.3,145.12397940509823,
pivot,,0,43,43,37,,,,,66.31563700000697,66.31563700000697,5,3.0565302000031807,,,,,,,,,,,,,104,001,2023-10-05_16h18.52.976,word priming experiment,2023.1.3,145.12397940509823,
bottle ,,0,44,44,5,,,,,69.38381939999817,69.38381939999817,5,1.4009281000035116,,,,,,,,,,,,,104,001,2023-10-05_16h18.52.976,word priming experiment,2023.1.3,145.12397940509823,
leaf,,0,45,45,48,,,,,70.79518929999904,70.79518929999904,5,0.5880929999984801,,,,,,,,,,,,,104,001,2023-10-05_16h18.52.976,word priming experiment,2023.1.3,145.12397940509823,
electricity,,0,46,46,23,,,,,71.39525060000597,71.39525060000597,5,0.6074569000047632,,,,,,,,,,,,,104,001,2023-10-05_16h18.52.976,word priming experiment,2023.1.3,145.12397940509823,
crescent,,0,47,47,20,,,,,72.01388720000978,72.01388720000978,5,0.6071856999915326,,,,,,,,,,,,,104,001,2023-10-05_16h18.52.976,word priming experiment,2023.1.3,145.12397940509823,
conspicuous,,0,48,48,40,,,,,72.63278860000719,72.63278860000719,5,0.5126598000060767,,,,,,,,,,,,,104,001,2023-10-05_16h18.52.976,word priming experiment,2023.1.3,145.12397940509823,
piano,,0,49,49,4,,,,,73.15572090000205,73.15572090000205,5,0.7467385000054492,,,,,,,,,,,,,104,001,2023-10-05_16h18.52.976,word priming experiment,2023.1.3,145.12397940509823,
,_a_d_l,,,,,0,0,0,64,,,,,73.9209811000037,73.9209811000037,73.9209811000037,0.01264029998856131,"saddle
",[0.06388888888888888],[-0.3055555555555556],[1],[0],[0],[8.00403960001131],['text_3'],104,001,2023-10-05_16h18.52.976,word priming experiment,2023.1.3,145.12397940509823,
,r_ng,,,,,0,1,1,63,,,,,81.92748540001048,81.92748540001048,81.92748540001048,0.0018844000005628914,ring,[0.06388888888888888],[-0.3055555555555556],[1],[0],[0],[3.493196399998851],['text_3'],104,001,2023-10-05_16h18.52.976,word priming experiment,2023.1.3,145.12397940509823,
,a_n_s__,,,,,0,2,2,52,,,,,85.42405729999882,85.42405729999882,85.42405729999882,0.0019718000112334266,a,[],[],[],[],[],[],[],104,001,2023-10-05_16h18.52.976,word priming experiment,2023.1.3,145.12397940509823,
,p_a_n_,,,,,0,3,3,3,,,,,95.42612480001117,95.42612480001117,95.42612480001117,0.004582300010952167,,"[-0.03425925925925926, -0.046296296296296294]","[-0.3287037037037037, -0.30462962962962964]","[1, 1]","[0, 0]","[0, 0]","[7.3866735999909, 8.6833595999924]",['text_3'],104,001,2023-10-05_16h18.52.976,word priming experiment,2023.1.3,145.12397940509823,
,sw_p_,,,,,0,4,4,73,,,,,104.11283510000794,104.11283510000794,104.11283510000794,0.001931600010721013,swipw,[-0.046296296296296294],[-0.30462962962962964],[1],[0],[0],[3.028861099999631],['text_3'],104,001,2023-10-05_16h18.52.976,word priming experiment,2023.1.3,145.12397940509823,
,l_m_,,,,,0,5,5,86,,,,,107.14396900001157,107.14396900001157,107.14396900001157,0.0016536999901290983,lame,[-0.046296296296296294],[-0.30462962962962964],[1],[0],[0],[7.48990230000345],['text_3'],104,001,2023-10-05_16h18.52.976,word priming experiment,2023.1.3,145.12397940509823,
,p_ _e,,,,,0,6,6,31,,,,,114.63702300000296,114.63702300000296,114.63702300000296,0.0025714999937918037,page,[-0.046296296296296294],[-0.30462962962962964],[1],[0],[0],[2.5777845999982674],['text_3'],104,001,2023-10-05_16h18.52.976,word priming experiment,2023.1.3,145.12397940509823,
,_es_t_p,,,,,0,7,7,16,,,,,117.21758140000748,117.21758140000748,117.21758140000748,0.0018509000074118376,desktop,[-0.046296296296296294],[-0.30462962962962964],[1],[0],[0],[3.2293360000039684],['text_3'],104,001,2023-10-05_16h18.52.976,word priming experiment,2023.1.3,145.12397940509823,
,_c_ss_r,,,,,0,8,8,43,,,,,120.44969330000458,120.44969330000458,120.44969330000458,0.0020567999890772626,scissor,[-0.046296296296296294],[-0.30462962962962964],[1],[0],[0],[3.21676659998775],['text_3'],104,001,2023-10-05_16h18.52.976,word priming experiment,2023.1.3,145.12397940509823,
,_r_wn,,,,,0,9,9,95,,,,,123.66921920000459,123.66921920000459,123.66921920000459,0.0017835000035120174,brown,[-0.046296296296296294],[-0.30462962962962964],[1],[0],[0],[2.48079190000135],['text_3'],104,001,2023-10-05_16h18.52.976,word priming experiment,2023.1.3,145.12397940509823,
,F_ _ma_,,,,,0,10,10,37,,,,,126.15427360001195,126.15427360001195,126.15427360001195,0.0031541000062134117,,[-0.049074074074074076],[-0.30462962962962964],[1],[0],[0],[7.397757999991882],['text_3'],104,001,2023-10-05_16h18.52.976,word priming experiment,2023.1.3,145.12397940509823,
,c_m_r_,,,,,0,11,11,6,,,,,133.55456240000785,133.55456240000785,133.55456240000785,0.0021065000037197024,camera,[-0.049074074074074076],[-0.30462962962962964],[1],[0],[0],[3.709155099990312],['text_3'],104,001,2023-10-05_16h18.52.976,word priming experiment,2023.1.3,145.12397940509823,
,w_t_r,,,,,0,12,12,79,,,,,137.2669850000093,137.2669850000093,137.2669850000093,0.00189200000022538,water,[-0.049074074074074076],[-0.30462962962962964],[1],[0],[0],[2.535878299997421],['text_3'],104,001,2023-10-05_16h18.52.976,word priming experiment,2023.1.3,145.12397940509823,
,b_t_l_,,,,,0,13,13,10,,,,,139.80521570000565,139.80521570000565,139.80521570000565,0.0018918999994639307,bottle,[-0.049074074074074076],[-0.30462962962962964],[1],[0],[0],[2.3703918999963207],['text_3'],104,001,2023-10-05_16h18.52.976,word priming experiment,2023.1.3,145.12397940509823,
,_h_nd_r,,,,,0,14,14,30,,,,,142.17935010000656,142.17935010000656,142.17935010000656,0.00197199999820441,,[],[],[],[],[],[],[],104,001,2023-10-05_16h18.52.976,word priming experiment,2023.1.3,145.12397940509823,
,dr_u_h_,,,,,0,15,15,12,,,,,152.1813375000056,152.1813375000056,152.1813375000056,0.0034986999962711707,drought,[-0.049074074074074076],[-0.30462962962962964],[1],[0],[0],[3.0497128999995766],['text_3'],104,001,2023-10-05_16h18.52.976,word priming experiment,2023.1.3,145.12397940509823,
,l_ _f,,,,,0,16,16,53,,,,,155.23337600000377,155.23337600000377,155.23337600000377,0.0018454999953974038,leaf,[-0.049074074074074076],[-0.30462962962962964],[1],[0],[0],[1.7042430000001332],['text_3'],104,001,2023-10-05_16h18.52.976,word priming experiment,2023.1.3,145.12397940509823,
,l_d_er,,,,,0,17,17,98,,,,,156.94056630000705,156.94056630000705,156.94056630000705,0.0017311999981757253,ladder,[-0.049074074074074076],[-0.30462962962962964],[1],[0],[0],[2.2999726999987615],['text_3'],104,001,2023-10-05_16h18.52.976,word priming experiment,2023.1.3,145.12397940509823,
,un_ve_s_ _y,,,,,0,18,18,20,,,,,159.24360400000296,159.24360400000296,159.24360400000296,0.0021037999977124855,university,[-0.049074074074074076],[-0.30462962962962964],[1],[0],[0],[4.069418900005985],['text_3'],104,001,2023-10-05_16h18.52.976,word priming experiment,2023.1.3,145.12397940509823,
,_a_e,,,,,0,19,19,0,,,,,163.31526040000608,163.31526040000608,163.31526040000608,0.0018428999901516363,vase,[-0.049074074074074076],[-0.30462962962962964],[1],[0],[0],[1.655547000002116],['text_3'],104,001,2023-10-05_16h18.52.976,word priming experiment,2023.1.3,145.12397940509823,
,l__ra_y,,,,,0,20,20,24,,,,,164.97376960000838,164.97376960000838,164.97376960000838,0.002060200000414625,,[],[],[],[],[],[],[],104,001,2023-10-05_16h18.52.976,word priming experiment,2023.1.3,145.12397940509823,
,p_l_c_,,,,,0,21,21,83,,,,,174.97598390000348,174.97598390000348,174.97598390000348,0.004341300009400584,,[-0.05277777777777778],[-0.30462962962962964],[1],[0],[0],[4.7373224000039045],['text_3'],104,001,2023-10-05_16h18.52.976,word priming experiment,2023.1.3,145.12397940509823,
,p_c_,,,,,0,22,22,8,,,,,179.71564000000944,179.71564000000944,179.71564000000944,0.0016928000113693997,pace,[-0.05277777777777778],[-0.30462962962962964],[1],[0],[0],[3.797676899994258],['text_3'],104,001,2023-10-05_16h18.52.976,word priming experiment,2023.1.3,145.12397940509823,
,l_ly,,,,,0,23,23,70,,,,,183.51602870000352,183.51602870000352,183.51602870000352,0.001552699992316775,lily,[-0.05277777777777778],[-0.30462962962962964],[1],[0],[0],[2.286249599987059],['text_3'],104,001,2023-10-05_16h18.52.976,word priming experiment,2023.1.3,145.12397940509823,
,bu_gu_d_,,,,,0,24,24,74,,,,,185.8060906000028,185.8060906000028,185.8060906000028,0.0019210000027669594,burgundy,[-0.05277777777777778],[-0.30462962962962964],[1],[0],[0],[2.93871119999676],['text_3'],104,001,2023-10-05_16h18.52.976,word priming experiment,2023.1.3,145.12397940509823,
,V_ _w,,,,,0,25,25,41,,,,,188.74885760000325,188.74885760000325,188.74885760000325,0.0037415999977383763,view,[-0.05277777777777778],[-0.30462962962962964],[1],[0],[0],[6.7534979000047315],['text_3'],104,001,2023-10-05_16h18.52.976,word priming experiment,2023.1.3,145.12397940509823,
,p_r_fy,,,,,0,26,26,80,,,,,195.50470410000707,195.50470410000707,195.50470410000707,0.0018697999912546948,purify,[-0.05277777777777778],[-0.30462962962962964],[1],[0],[0],[2.972355300007621],['text_3'],104,001,2023-10-05_16h18.52.976,word priming experiment,2023.1.3,145.12397940509823,
,cl_s_r_ _m,,,,,0,27,27,78,,,,,198.48044420000224,198.48044420000224,198.48044420000224,0.0021664999949280173,classroom,[-0.05277777777777778],[-0.30462962962962964],[1],[0],[0],[4.353634400002193],['text_3'],104,001,2023-10-05_16h18.52.976,word priming experiment,2023.1.3,145.12397940509823,
,S_ _g,,,,,0,28,28,35,,,,,202.83631930001138,202.83631930001138,202.83631930001138,0.0017835000035120174,sing,[-0.05277777777777778],[-0.30462962962962964],[1],[0],[0],[2.3697332000010647],['text_3'],104,001,2023-10-05_16h18.52.976,word priming experiment,2023.1.3,145.12397940509823,
,_l_ctr_c_ty,,,,,0,29,29,28,,,,,205.20916310000757,205.20916310000757,205.20916310000757,0.0021465000027092174,electricity,[-0.05277777777777778],[-0.30462962962962964],[1],[0],[0],[5.658039100002497],['text_3'],104,001,2023-10-05_16h18.52.976,word priming experiment,2023.1.3,145.12397940509823,
,_c__r,,,,,0,30,30,14,,,,,210.8700167000061,210.8700167000061,210.8700167000061,0.001774400006979704,,[-0.05277777777777778],[-0.30277777777777776],[1],[0],[0],[5.679216899996391],['text_3'],104,001,2023-10-05_16h18.52.976,word priming experiment,2023.1.3,145.12397940509823,
,b_ar_,,,,,0,31,31,96,,,,,216.55187330000626,216.55187330000626,216.55187330000626,0.001941499998793006,,[-0.044444444444444446],[-0.3037037037037037],[1],[0],[0],[8.578607200004626],['text_3'],104,001,2023-10-05_16h18.52.976,word priming experiment,2023.1.3,145.12397940509823,
,m_b_l_,,,,,0,32,32,90,,,,,225.1337649000052,225.1337649000052,225.1337649000052,0.0017441999953007326,mobile,[-0.044444444444444446],[-0.3037037037037037],[1],[0],[0],[2.4737485999939963],['text_3'],104,001,2023-10-05_16h18.52.976,word priming experiment,2023.1.3,145.12397940509823,
,c_e_c_nt,,,,,0,33,33,25,,,,,227.6094688000012,227.6094688000012,227.6094688000012,0.002124500009813346,crescent,[-0.044444444444444446],[-0.3037037037037037],[1],[0],[0],[4.013971899999888],['text_3'],104,001,2023-10-05_16h18.52.976,word priming experiment,2023.1.3,145.12397940509823,
,_p_n,,,,,0,34,34,67,,,,,231.62623500000336,231.62623500000336,231.62623500000336,0.0018084000039380044,,[-0.044444444444444446],[-0.3037037037037037],[1],[0],[0],[7.115488700001151],['text_3'],104,001,2023-10-05_16h18.52.976,word priming experiment,2023.1.3,145.12397940509823,
,s_e_t,,,,,0,35,35,38,,,,,238.74710810001125,238.74710810001125,238.74710810001125,0.0025205000129062682,,[-0.044444444444444446],[-0.3037037037037037],[1],[0],[0],[5.567070199991576],['text_3'],104,001,2023-10-05_16h18.52.976,word priming experiment,2023.1.3,145.12397940509823,
,s_n_e_s,,,,,0,36,36,15,,,,,244.31556630000705,244.31556630000705,244.31556630000705,0.0018368000019108877,sonnets,[-0.032407407407407406],[-0.2972222222222222],[1],[0],[0],[5.914747400005581],['text_3'],104,001,2023-10-05_16h18.52.976,word priming experiment,2023.1.3,145.12397940509823,
,h_m_er,,,,,0,37,37,51,,,,,250.23326140000427,250.23326140000427,250.23326140000427,0.00200899998890236,hammer,[-0.003703703703703704],[-0.3074074074074074],[1],[0],[0],[3.4231056999997236],['text_3'],104,001,2023-10-05_16h18.52.976,word priming experiment,2023.1.3,145.12397940509823,
,sh_rt,,,,,0,38,38,54,,,,,253.66002819999994,253.66002819999994,253.66002819999994,0.0018622000061441213,short,[-0.003703703703703704],[-0.3074074074074074],[1],[0],[0],[5.214092399997753],['text_3'],104,001,2023-10-05_16h18.52.976,word priming experiment,2023.1.3,145.12397940509823,
,m_th,,,,,0,39,39,87,,,,,258.87558490000083,258.87558490000083,258.87558490000083,0.001918100009788759,math,[-0.003703703703703704],[-0.3074074074074074],[1],[0],[0],[3.687536600002204],['text_3'],104,001,2023-10-05_16h18.52.976,word priming experiment,2023.1.3,145.12397940509823,
,m_t_s_s,,,,,0,40,40,23,,,,,262.56668329999957,262.56668329999957,262.56668329999957,0.0019437999872025102,mitosis,[-0.003703703703703704],[-0.3074074074074074],[1],[0],[0],[3.0293430000019725],['text_3'],104,001,2023-10-05_16h18.52.976,word priming experiment,2023.1.3,145.12397940509823,
,cr_w,,,,,0,41,41,81,,,,,265.59867269999813,265.59867269999813,265.59867269999813,0.0018914999964181334,crow,[0.037037037037037035],[-0.30462962962962964],[1],[0],[0],[4.679276499999105],['text_3'],104,001,2023-10-05_16h18.52.976,word priming experiment,2023.1.3,145.12397940509823,
,ch_c_la_e,,,,,0,42,42,11,,,,,270.28173800000513,270.28173800000513,270.28173800000513,0.001933799998369068,chocolate,[0.06018518518518518],[-0.3],[1],[0],[0],[4.714656800002558],['text_3'],104,001,2023-10-05_16h18.52.976,word priming experiment,2023.1.3,145.12397940509823,
,_ar_h_n_s,,,,,0,43,43,58,,,,,274.9980096000072,274.9980096000072,274.9980096000072,0.0020173999946564436,,[],[],[],[],[],[],[],104,001,2023-10-05_16h18.52.976,word priming experiment,2023.1.3,145.12397940509823,
,cha_n,,,,,0,44,44,71,,,,,285.0011024999985,285.0011024999985,285.0011024999985,0.0046350999909918755,chain,[0.06018518518518518],[-0.3],[1],[0],[0],[4.181092400001944],['text_3'],104,001,2023-10-05_16h18.52.976,word priming experiment,2023.1.3,145.12397940509823,
,s_oes,,,,,0,45,45,56,,,,,289.18482590001076,289.18482590001076,289.18482590001076,0.0017809999990276992,shoes,[0.06018518518518518],[-0.3],[1],[0],[0],[2.1063022000016645],['text_3'],104,001,2023-10-05_16h18.52.976,word priming experiment,2023.1.3,145.12397940509823,
,ba_er_,,,,,0,46,46,18,,,,,291.29394670001057,291.29394670001057,291.29394670001057,0.0017860000079963356,,[],[],[],[],[],[],[],104,001,2023-10-05_16h18.52.976,word priming experiment,2023.1.3,145.12397940509823,
,s_c_r_ _y,,,,,0,47,47,33,,,,,301.296525800004,301.296525800004,301.296525800004,0.004714299997431226,socerry,[0.06018518518518518],[-0.3],[1],[0],[0],[6.324495499997283],['text_3'],104,001,2023-10-05_16h18.52.976,word priming experiment,2023.1.3,145.12397940509823,
,ap_l_cat__n,,,,,0,48,48,91,,,,,307.62514850001025,307.62514850001025,307.62514850001025,0.0018855999951483682,application,[0.06018518518518518],[-0.3],[1],[0],[0],[3.403736399995978],['text_3'],104,001,2023-10-05_16h18.52.976,word priming experiment,2023.1.3,145.12397940509823,
,wh_t_,,,,,0,49,49,57,,,,,311.0305215000117,311.0305215000117,311.0305215000117,0.0017626000044401735,white,[0.0787037037037037],[-0.3055555555555556],[1],[0],[0],[3.861300599994138],['text_3'],104,001,2023-10-05_16h18.52.976,word priming experiment,2023.1.3,145.12397940509823,
,s_e_tac_es,,,,,0,50,50,13,,,,,314.89430460000585,314.89430460000585,314.89430460000585,0.002025499998126179,spectacles,[0.10833333333333334],[-0.31574074074074077],[1],[0],[0],[9.271512199993595],['text_3'],104,001,2023-10-05_16h18.52.976,word priming experiment,2023.1.3,145.12397940509823,
,bl_d_,,,,,0,51,51,27,,,,,324.16885460000776,324.16885460000776,324.16885460000776,0.0016395000129705295,bl,[],[],[],[],[],[],[],104,001,2023-10-05_16h18.52.976,word priming experiment,2023.1.3,145.12397940509823,
,ch_ss,,,,,0,52,52,66,,,,,334.1716531999991,334.1716531999991,334.1716531999991,0.004600000000209548,chess,[0.10648148148148148],[-0.31203703703703706],[1],[0],[0],[2.9329226999980165],['text_3'],104,001,2023-10-05_16h18.52.976,word priming experiment,2023.1.3,145.12397940509823,
,p_n_appl_,,,,,0,53,53,65,,,,,337.1077954000066,337.1077954000066,337.1077954000066,0.001990799995837733,pineapple,[0.10833333333333334],[-0.3055555555555556],[1],[0],[0],[3.888361100005568],['text_3'],104,001,2023-10-05_16h18.52.976,word priming experiment,2023.1.3,145.12397940509823,
,f_rst,,,,,0,54,54,69,,,,,340.9984087000048,340.9984087000048,340.9984087000048,0.0017657000134931877,first,[0.10833333333333334],[-0.3055555555555556],[1],[0],[0],[2.369777600004454],['text_3'],104,001,2023-10-05_16h18.52.976,word priming experiment,2023.1.3,145.12397940509823,
,p_r_e,,,,,0,55,55,22,,,,,343.37145320000127,343.37145320000127,343.37145320000127,0.0018168999959016219,pure,[0.11203703703703703],[-0.2898148148148148],[1],[0],[0],[7.330792300010216],['text_3'],104,001,2023-10-05_16h18.52.976,word priming experiment,2023.1.3,145.12397940509823,
,pr_nt,,,,,0,56,56,61,,,,,350.7041503000073,350.7041503000073,350.7041503000073,0.0018485000036889687,print,[0.11203703703703703],[-0.2898148148148148],[1],[0],[0],[2.620758899996872],['text_3'],104,001,2023-10-05_16h18.52.976,word priming experiment,2023.1.3,145.12397940509823,
,Gr_ _k,,,,,0,57,57,89,,,,,353.3295836000034,353.3295836000034,353.3295836000034,0.0037207999994279817,greek,[0.11203703703703703],[-0.2898148148148148],[1],[0],[0],[2.421912499994505],['text_3'],104,001,2023-10-05_16h18.52.976,word priming experiment,2023.1.3,145.12397940509823,
,w_nd_w,,,,,0,58,58,39,,,,,355.7546791000059,355.7546791000059,355.7546791000059,0.0017657999997027218,window,[0.11203703703703703],[-0.2898148148148148],[1],[0],[0],[3.251559099997394],['text_3'],104,001,2023-10-05_16h18.52.976,word priming experiment,2023.1.3,145.12397940509823,
,w_ _ k,,,,,0,59,59,21,,,,,359.0093443000078,359.0093443000078,359.0093443000078,0.001856000002590008,week,[0.11203703703703703],[-0.29444444444444445],[1],[0],[0],[2.223193799989531],['text_3'],104,001,2023-10-05_16h18.52.976,word priming experiment,2023.1.3,145.12397940509823,
,_e_p,,,,,0,60,60,40,,,,,361.2350884000043,361.2350884000043,361.2350884000043,0.0017395000031683594,,[0.11203703703703703],[-0.29444444444444445],[1],[0],[0],[8.71156080000219],['text_3'],104,001,2023-10-05_16h18.52.976,word priming experiment,2023.1.3,145.12397940509823,
,n_s_,,,,,0,61,61,72,,,,,369.9507903000049,369.9507903000049,369.9507903000049,0.0028956000023754314,nose,[0.12407407407407407],[-0.3037037037037037],[1],[0],[0],[3.2081168000004254],['text_3'],104,001,2023-10-05_16h18.52.976,word priming experiment,2023.1.3,145.12397940509823,
,t_g_r,,,,,0,62,62,1,,,,,373.16148460000113,373.16148460000113,373.16148460000113,0.0018616000015754253,tiger,[0.10833333333333334],[-0.2972222222222222],[1],[0],[0],[3.277330600001733],['text_3'],104,001,2023-10-05_16h18.52.976,word priming experiment,2023.1.3,145.12397940509823,
,s_v_n,,,,,0,63,63,94,,,,,376.44152010000835,376.44152010000835,376.44152010000835,0.0018253000016557053,seven,[0.10833333333333334],[-0.2972222222222222],[1],[0],[0],[2.343416299991077],['text_3'],104,001,2023-10-05_16h18.52.976,word priming experiment,2023.1.3,145.12397940509823,
,Pa_ _n_,,,,,0,64,64,47,,,,,378.7894570000062,378.7894570000062,378.7894570000062,0.0034784000017680228,panini,[0.10833333333333334],[-0.2972222222222222],[1],[0],[0],[3.4841806999902474],['text_3'],104,001,2023-10-05_16h18.52.976,word priming experiment,2023.1.3,145.12397940509823,
,s_ad_,,,,,0,65,65,26,,,,,382.2767371000082,382.2767371000082,382.2767371000082,0.0018256999901495874,s,[],[],[],[],[],[],[],104,001,2023-10-05_16h18.52.976,word priming experiment,2023.1.3,145.12397940509823,
,c_nv_s,,,,,0,66,66,99,,,,,392.2792571000027,392.2792571000027,392.2792571000027,0.004502499999944121,canvas,[0.11851851851851852],[-0.30462962962962964],[1],[0],[0],[4.236501799998223],['text_3'],104,001,2023-10-05_16h18.52.976,word priming experiment,2023.1.3,145.12397940509823,
,d_nut,,,,,0,67,67,85,,,,,396.51818630000344,396.51818630000344,396.51818630000344,0.0020379999914439395,donut,[0.11851851851851852],[-0.30462962962962964],[1],[0],[0],[2.3145723000052385],['text_3'],104,001,2023-10-05_16h18.52.976,word priming experiment,2023.1.3,145.12397940509823,
,_a_nt,,,,,0,68,68,19,,,,,398.83523080000305,398.83523080000305,398.83523080000305,0.0017151999927591532,,[0.11851851851851852],[-0.30462962962962964],[1],[0],[0],[8.46718079999846],['text_3'],104,001,2023-10-05_16h18.52.976,word priming experiment,2023.1.3,145.12397940509823,
,w_ _e,,,,,0,69,69,50,,,,,407.3057984000043,407.3057984000043,407.3057984000043,0.001989899988984689,were,[0.11851851851851852],[-0.30462962962962964],[1],[0],[0],[3.7574173000029987],['text_3'],104,001,2023-10-05_16h18.52.976,word priming experiment,2023.1.3,145.12397940509823,
,bo_t_e,,,,,0,70,70,5,,,,,411.0661243000068,411.0661243000068,411.0661243000068,0.0022314000088954344,bottle,[0.11851851851851852],[-0.30462962962962964],[1],[0],[0],[2.446002700002282],['text_3'],104,001,2023-10-05_16h18.52.976,word priming experiment,2023.1.3,145.12397940509823,
,p_n_appl_,,,,,0,71,71,55,,,,,413.51468269999896,413.51468269999896,413.51468269999896,0.0020432000019354746,pineapple,[0.11851851851851852],[-0.30462962962962964],[1],[0],[0],[2.9244395999994595],['text_3'],104,001,2023-10-05_16h18.52.976,word priming experiment,2023.1.3,145.12397940509823,
,gh_st,,,,,0,72,72,93,,,,,416.44246310000017,416.44246310000017,416.44246310000017,0.0019163000106345862,ghost,[0.11851851851851852],[-0.30462962962962964],[1],[0],[0],[3.825667799988878],['text_3'],104,001,2023-10-05_16h18.52.976,word priming experiment,2023.1.3,145.12397940509823,
,tr_m,,,,,0,73,73,59,,,,,420.2708533999976,420.2708533999976,420.2708533999976,0.001781200000550598,trim,[0.11851851851851852],[-0.30462962962962964],[1],[0],[0],[2.7305038000049535],['text_3'],104,001,2023-10-05_16h18.52.976,word priming experiment,2023.1.3,145.12397940509823,
,cl_s_,,,,,0,74,74,68,,,,,423.0042145000043,423.0042145000043,423.0042145000043,0.001920299997436814,class,[0.10648148148148148],[-0.2972222222222222],[1],[0],[0],[2.9530733000137843],['text_3'],104,001,2023-10-05_16h18.52.976,word priming experiment,2023.1.3,145.12397940509823,
,la_g_ag_,,,,,0,75,75,62,,,,,425.9602901000035,425.9602901000035,425.9602901000035,0.0019182999967597425,language,[0.1111111111111111],[-0.29907407407407405],[1],[0],[0],[4.32579989999067],['text_3'],104,001,2023-10-05_16h18.52.976,word priming experiment,2023.1.3,145.12397940509823,
,p_g__n,,,,,0,76,76,82,,,,,430.28883370000403,430.28883370000403,430.28883370000403,0.001894400003948249,pigeon,[0.1111111111111111],[-0.29907407407407405],[1],[0],[0],[3.1532793999940623],['text_3'],104,001,2023-10-05_16h18.52.976,word priming experiment,2023.1.3,145.12397940509823,
,s_ad_w,,,,,0,77,77,75,,,,,433.44548300000315,433.44548300000315,433.44548300000315,0.0020963999995728955,shadow,[0.1111111111111111],[-0.29907407407407405],[1],[0],[0],[5.053996899994672],['text_3'],104,001,2023-10-05_16h18.52.976,word priming experiment,2023.1.3,145.12397940509823,
,r_s_,,,,,0,78,78,60,,,,,438.5023414000025,438.5023414000025,438.5023414000025,0.0018500000005587935,rose,[0.1175925925925926],[-0.3074074074074074],[1],[0],[0],[2.8565600000001723],['text_3'],104,001,2023-10-05_16h18.52.976,word priming experiment,2023.1.3,145.12397940509823,
,p_ll_r,,,,,0,79,79,88,,,,,441.36100480001187,441.36100480001187,441.36100480001187,0.0017035000055329874,pillar,[0.1175925925925926],[-0.3],[1],[0],[0],[3.5700783999927808],['text_3'],104,001,2023-10-05_16h18.52.976,word priming experiment,2023.1.3,145.12397940509823,
,w_e_lc_a_r,,,,,0,80,80,36,,,,,444.93493930000113,444.93493930000113,444.93493930000113,0.002297400002134964,wheelchair,[0.11851851851851852],[-0.2935185185185185],[1],[0],[0],[5.187575300005847],['text_3'],104,001,2023-10-05_16h18.52.976,word priming experiment,2023.1.3,145.12397940509823,
,s_nl_g_t,,,,,0,81,81,48,,,,,450.1252353000018,450.1252353000018,450.1252353000018,0.0018631999992066994,sunlight,[0.11851851851851852],[-0.2935185185185185],[1],[0],[0],[3.358988499996485],['text_3'],104,001,2023-10-05_16h18.52.976,word priming experiment,2023.1.3,145.12397940509823,
,_p_a_d_,,,,,0,82,82,7,,,,,453.4869854999997,453.4869854999997,453.4869854999997,0.0021800000104121864,,[0.11851851851851852],[-0.2935185185185185],[1],[0],[0],[3.118636200000765],['text_3'],104,001,2023-10-05_16h18.52.976,word priming experiment,2023.1.3,145.12397940509823,
,f_r_,,,,,0,83,83,92,,,,,456.6092078000074,456.6092078000074,456.6092078000074,0.0017857999919215217,fire,[0.12037037037037036],[-0.2953703703703704],[1],[0],[0],[2.7097405000095023],['text_3'],104,001,2023-10-05_16h18.52.976,word priming experiment,2023.1.3,145.12397940509823,
,b_g,,,,,0,84,84,17,,,,,459.3207134000113,459.3207134000113,459.3207134000113,0.0014402999950107187,bag,[0.12129629629629629],[-0.30925925925925923],[1],[0],[0],[2.647174099998665],['text_3'],104,001,2023-10-05_16h18.52.976,word priming experiment,2023.1.3,145.12397940509823,
,st_l_,,,,,0,85,85,46,,,,,461.97076680000464,461.97076680000464,461.97076680000464,0.0022040000039851293,stale,[0.1175925925925926],[-0.2953703703703704],[1],[0],[0],[9.452244699990842],['text_3'],104,001,2023-10-05_16h18.52.976,word priming experiment,2023.1.3,145.12397940509823,
,__a_n_e,,,,,0,86,86,9,,,,,471.42747720000625,471.42747720000625,471.42747720000625,0.0019156000053044409,,[0.1175925925925926],[-0.2953703703703704],[1],[0],[0],[7.255344899996999],['text_3'],104,001,2023-10-05_16h18.52.976,word priming experiment,2023.1.3,145.12397940509823,
,l_b_rty,,,,,0,87,87,76,,,,,478.68484260000696,478.68484260000696,478.68484260000696,0.0020361000060802326,liberty,[0.1175925925925926],[-0.2953703703703704],[1],[0],[0],[3.1251122999965446],['text_3'],104,001,2023-10-05_16h18.52.976,word priming experiment,2023.1.3,145.12397940509823,
,c_mp_a_nt,,,,,0,88,88,84,,,,,481.8135096000042,481.8135096000042,481.8135096000042,0.0021953999967081472,comp,[],[],[],[],[],[],[],104,001,2023-10-05_16h18.52.976,word priming experiment,2023.1.3,145.12397940509823,
,s_rv_v_l,,,,,0,89,89,49,,,,,491.81410490001144,491.81410490001144,491.81410490001144,0.003177899998263456,survival,[0.1175925925925926],[-0.2953703703703704],[1],[0],[0],[4.397736500002793],['text_3'],104,001,2023-10-05_16h18.52.976,word priming experiment,2023.1.3,145.12397940509823,
,br_ _m_t_ck,,,,,0,90,90,77,,,,,496.2151501000044,496.2151501000044,496.2151501000044,0.0023865999974077567,broomstick,[0.1175925925925926],[-0.2953703703703704],[1],[0],[0],[3.165470899999491],['text_3'],104,001,2023-10-05_16h18.52.976,word priming experiment,2023.1.3,145.12397940509823,
,c_n_p_cu_us,,,,,0,91,91,45,,,,,499.38519919999817,499.38519919999817,499.38519919999817,0.002053700009128079,conspicuous,[0.1175925925925926],[-0.2953703703703704],[1],[0],[0],[6.150620800006436],['text_3'],104,001,2023-10-05_16h18.52.976,word priming experiment,2023.1.3,145.12397940509823,
,f_l_,,,,,0,92,92,44,,,,,505.53794229999767,505.53794229999767,505.53794229999767,0.001516999996965751,file,[0.1175925925925926],[-0.2953703703703704],[1],[0],[0],[2.209862699994119],['text_3'],104,001,2023-10-05_16h18.52.976,word priming experiment,2023.1.3,145.12397940509823,
,b_ _k,,,,,0,93,93,4,,,,,507.74965730000986,507.74965730000986,507.74965730000986,0.0017443000106140971,book,[0.1175925925925926],[-0.2953703703703704],[1],[0],[0],[1.9203017999971053],['text_3'],104,001,2023-10-05_16h18.52.976,word priming experiment,2023.1.3,145.12397940509823,
,l_t_er,,,,,0,94,94,32,,,,,509.673621000009,509.673621000009,509.673621000009,0.001962099995580502,letter,[0.1175925925925926],[-0.2953703703703704],[1],[0],[0],[4.817502100006095],['text_3'],104,001,2023-10-05_16h18.52.976,word priming experiment,2023.1.3,145.12397940509823,
,__nv_lesc_nt ,,,,,0,95,95,34,,,,,514.4940693000099,514.4940693000099,514.4940693000099,0.0023286000068765134,convelescent,[0.1175925925925926],[-0.2953703703703704],[1],[0],[0],[5.191999400005443],['text_3'],104,001,2023-10-05_16h18.52.976,word priming experiment,2023.1.3,145.12397940509823,
,p_v_t,,,,,0,96,96,42,,,,,519.6881831000064,519.6881831000064,519.6881831000064,0.0017197999986819923,pivot,[0.1175925925925926],[-0.2953703703703704],[1],[0],[0],[2.383875600004103],['text_3'],104,001,2023-10-05_16h18.52.976,word priming experiment,2023.1.3,145.12397940509823,
,c_sh_ on,,,,,0,97,97,2,,,,,522.075390500002,522.075390500002,522.075390500002,0.002000500011490658,cushon,[0.1361111111111111],[-0.31296296296296294],[1],[0],[0],[4.153631599998334],['text_3'],104,001,2023-10-05_16h18.52.976,word priming experiment,2023.1.3,145.12397940509823,
,Ch_ _r,,,,,0,98,98,97,,,,,526.2320835999999,526.2320835999999,526.2320835999999,0.0020729999960167333,chair,[0.06944444444444445],[-0.30185185185185187],[1],[0],[0],[3.0142129000014393],['text_3'],104,001,2023-10-05_16h18.52.976,word priming experiment,2023.1.3,145.12397940509823,
,l__gu_n_,,,,,0,99,99,29,,,,,529.2494497000007,529.2494497000007,529.2494497000007,0.0019247000018367544,linguini,[0.06944444444444445],[-0.30185185185185187],[1],[0],[0],[3.700972999999067],['text_3'],104,001,2023-10-05_16h18.52.976,word priming experiment,2023.1.3,145.12397940509823,
